@prefix dc: <http://purl.org/dc/elements/1.1/> .
@prefix dcterms: <http://purl.org/dc/terms/> .
@prefix rdfs: <http://www.w3.org/2000/01/rdf-schema#> .
@prefix sdtmig: <http://ontologies.gsk.com/cdisc/sdtm-ig#> .

<http://id.gsk.com/dataset/cdisc/sdtm-ig/v3-4/> a sdtmig:ImplementationGuide ;
    rdfs:label "Study Data Tabulation Model Implementation Guide: Human Clinical Trials" ;
    sdtmig:hasDomain <http://id.gsk.com/dataset/cdisc/sdtm-ig/v3-4/AE>,
        <http://id.gsk.com/dataset/cdisc/sdtm-ig/v3-4/AG>,
        <http://id.gsk.com/dataset/cdisc/sdtm-ig/v3-4/BE>,
        <http://id.gsk.com/dataset/cdisc/sdtm-ig/v3-4/BS>,
        <http://id.gsk.com/dataset/cdisc/sdtm-ig/v3-4/CE>,
        <http://id.gsk.com/dataset/cdisc/sdtm-ig/v3-4/CM>,
        <http://id.gsk.com/dataset/cdisc/sdtm-ig/v3-4/CO>,
        <http://id.gsk.com/dataset/cdisc/sdtm-ig/v3-4/CP>,
        <http://id.gsk.com/dataset/cdisc/sdtm-ig/v3-4/CV>,
        <http://id.gsk.com/dataset/cdisc/sdtm-ig/v3-4/DA>,
        <http://id.gsk.com/dataset/cdisc/sdtm-ig/v3-4/DD>,
        <http://id.gsk.com/dataset/cdisc/sdtm-ig/v3-4/DM>,
        <http://id.gsk.com/dataset/cdisc/sdtm-ig/v3-4/DS>,
        <http://id.gsk.com/dataset/cdisc/sdtm-ig/v3-4/DV>,
        <http://id.gsk.com/dataset/cdisc/sdtm-ig/v3-4/EC>,
        <http://id.gsk.com/dataset/cdisc/sdtm-ig/v3-4/EG>,
        <http://id.gsk.com/dataset/cdisc/sdtm-ig/v3-4/EX>,
        <http://id.gsk.com/dataset/cdisc/sdtm-ig/v3-4/FA>,
        <http://id.gsk.com/dataset/cdisc/sdtm-ig/v3-4/FT>,
        <http://id.gsk.com/dataset/cdisc/sdtm-ig/v3-4/GF>,
        <http://id.gsk.com/dataset/cdisc/sdtm-ig/v3-4/HO>,
        <http://id.gsk.com/dataset/cdisc/sdtm-ig/v3-4/IE>,
        <http://id.gsk.com/dataset/cdisc/sdtm-ig/v3-4/IS>,
        <http://id.gsk.com/dataset/cdisc/sdtm-ig/v3-4/LB>,
        <http://id.gsk.com/dataset/cdisc/sdtm-ig/v3-4/MB>,
        <http://id.gsk.com/dataset/cdisc/sdtm-ig/v3-4/MH>,
        <http://id.gsk.com/dataset/cdisc/sdtm-ig/v3-4/MI>,
        <http://id.gsk.com/dataset/cdisc/sdtm-ig/v3-4/MK>,
        <http://id.gsk.com/dataset/cdisc/sdtm-ig/v3-4/ML>,
        <http://id.gsk.com/dataset/cdisc/sdtm-ig/v3-4/MS>,
        <http://id.gsk.com/dataset/cdisc/sdtm-ig/v3-4/NV>,
        <http://id.gsk.com/dataset/cdisc/sdtm-ig/v3-4/OE>,
        <http://id.gsk.com/dataset/cdisc/sdtm-ig/v3-4/OI>,
        <http://id.gsk.com/dataset/cdisc/sdtm-ig/v3-4/PC>,
        <http://id.gsk.com/dataset/cdisc/sdtm-ig/v3-4/PE>,
        <http://id.gsk.com/dataset/cdisc/sdtm-ig/v3-4/PP>,
        <http://id.gsk.com/dataset/cdisc/sdtm-ig/v3-4/PR>,
        <http://id.gsk.com/dataset/cdisc/sdtm-ig/v3-4/QS>,
        <http://id.gsk.com/dataset/cdisc/sdtm-ig/v3-4/RE>,
        <http://id.gsk.com/dataset/cdisc/sdtm-ig/v3-4/RELREC>,
        <http://id.gsk.com/dataset/cdisc/sdtm-ig/v3-4/RELSPEC>,
        <http://id.gsk.com/dataset/cdisc/sdtm-ig/v3-4/RELSUB>,
        <http://id.gsk.com/dataset/cdisc/sdtm-ig/v3-4/RP>,
        <http://id.gsk.com/dataset/cdisc/sdtm-ig/v3-4/RS>,
        <http://id.gsk.com/dataset/cdisc/sdtm-ig/v3-4/SC>,
        <http://id.gsk.com/dataset/cdisc/sdtm-ig/v3-4/SE>,
        <http://id.gsk.com/dataset/cdisc/sdtm-ig/v3-4/SM>,
        <http://id.gsk.com/dataset/cdisc/sdtm-ig/v3-4/SR>,
        <http://id.gsk.com/dataset/cdisc/sdtm-ig/v3-4/SS>,
        <http://id.gsk.com/dataset/cdisc/sdtm-ig/v3-4/SU>,
        <http://id.gsk.com/dataset/cdisc/sdtm-ig/v3-4/SUPPQUAL>,
        <http://id.gsk.com/dataset/cdisc/sdtm-ig/v3-4/SV>,
        <http://id.gsk.com/dataset/cdisc/sdtm-ig/v3-4/TA>,
        <http://id.gsk.com/dataset/cdisc/sdtm-ig/v3-4/TD>,
        <http://id.gsk.com/dataset/cdisc/sdtm-ig/v3-4/TE>,
        <http://id.gsk.com/dataset/cdisc/sdtm-ig/v3-4/TI>,
        <http://id.gsk.com/dataset/cdisc/sdtm-ig/v3-4/TM>,
        <http://id.gsk.com/dataset/cdisc/sdtm-ig/v3-4/TR>,
        <http://id.gsk.com/dataset/cdisc/sdtm-ig/v3-4/TS>,
        <http://id.gsk.com/dataset/cdisc/sdtm-ig/v3-4/TU>,
        <http://id.gsk.com/dataset/cdisc/sdtm-ig/v3-4/TV>,
        <http://id.gsk.com/dataset/cdisc/sdtm-ig/v3-4/UR>,
        <http://id.gsk.com/dataset/cdisc/sdtm-ig/v3-4/VS> ;
    dc:description "This is the implementation guide for human clinical trials corresponding to Version 2.0 of the CDISC Study Data Tabulation Model." ;
    dc:identifier "SDTMIG v3.4" ;
    dc:source "Prepared by the CDISC Submission Data Standards Team" ;
    dcterms:valid "2021-11-29" .

<http://id.gsk.com/dataset/cdisc/sdtm-ig/v3-4/AE> a sdtmig:Domain ;
    rdfs:label "Adverse Events" ;
    sdtmig:hasVariable <http://id.gsk.com/dataset/cdisc/sdtm-ig/v3-4/AE/AEACN>,
        <http://id.gsk.com/dataset/cdisc/sdtm-ig/v3-4/AE/AEACNDEV>,
        <http://id.gsk.com/dataset/cdisc/sdtm-ig/v3-4/AE/AEACNOTH>,
        <http://id.gsk.com/dataset/cdisc/sdtm-ig/v3-4/AE/AEBDSYCD>,
        <http://id.gsk.com/dataset/cdisc/sdtm-ig/v3-4/AE/AEBODSYS>,
        <http://id.gsk.com/dataset/cdisc/sdtm-ig/v3-4/AE/AECAT>,
        <http://id.gsk.com/dataset/cdisc/sdtm-ig/v3-4/AE/AECONTRT>,
        <http://id.gsk.com/dataset/cdisc/sdtm-ig/v3-4/AE/AEDECOD>,
        <http://id.gsk.com/dataset/cdisc/sdtm-ig/v3-4/AE/AEDUR>,
        <http://id.gsk.com/dataset/cdisc/sdtm-ig/v3-4/AE/AEENDTC>,
        <http://id.gsk.com/dataset/cdisc/sdtm-ig/v3-4/AE/AEENDY>,
        <http://id.gsk.com/dataset/cdisc/sdtm-ig/v3-4/AE/AEENRF>,
        <http://id.gsk.com/dataset/cdisc/sdtm-ig/v3-4/AE/AEENRTPT>,
        <http://id.gsk.com/dataset/cdisc/sdtm-ig/v3-4/AE/AEENTPT>,
        <http://id.gsk.com/dataset/cdisc/sdtm-ig/v3-4/AE/AEGRPID>,
        <http://id.gsk.com/dataset/cdisc/sdtm-ig/v3-4/AE/AEHLGT>,
        <http://id.gsk.com/dataset/cdisc/sdtm-ig/v3-4/AE/AEHLGTCD>,
        <http://id.gsk.com/dataset/cdisc/sdtm-ig/v3-4/AE/AEHLT>,
        <http://id.gsk.com/dataset/cdisc/sdtm-ig/v3-4/AE/AEHLTCD>,
        <http://id.gsk.com/dataset/cdisc/sdtm-ig/v3-4/AE/AELLT>,
        <http://id.gsk.com/dataset/cdisc/sdtm-ig/v3-4/AE/AELLTCD>,
        <http://id.gsk.com/dataset/cdisc/sdtm-ig/v3-4/AE/AELOC>,
        <http://id.gsk.com/dataset/cdisc/sdtm-ig/v3-4/AE/AEMODIFY>,
        <http://id.gsk.com/dataset/cdisc/sdtm-ig/v3-4/AE/AEOUT>,
        <http://id.gsk.com/dataset/cdisc/sdtm-ig/v3-4/AE/AEPATT>,
        <http://id.gsk.com/dataset/cdisc/sdtm-ig/v3-4/AE/AEPRESP>,
        <http://id.gsk.com/dataset/cdisc/sdtm-ig/v3-4/AE/AEPTCD>,
        <http://id.gsk.com/dataset/cdisc/sdtm-ig/v3-4/AE/AEREFID>,
        <http://id.gsk.com/dataset/cdisc/sdtm-ig/v3-4/AE/AEREL>,
        <http://id.gsk.com/dataset/cdisc/sdtm-ig/v3-4/AE/AERELNST>,
        <http://id.gsk.com/dataset/cdisc/sdtm-ig/v3-4/AE/AERLDEV>,
        <http://id.gsk.com/dataset/cdisc/sdtm-ig/v3-4/AE/AERLPRC>,
        <http://id.gsk.com/dataset/cdisc/sdtm-ig/v3-4/AE/AERLPRT>,
        <http://id.gsk.com/dataset/cdisc/sdtm-ig/v3-4/AE/AESCAN>,
        <http://id.gsk.com/dataset/cdisc/sdtm-ig/v3-4/AE/AESCAT>,
        <http://id.gsk.com/dataset/cdisc/sdtm-ig/v3-4/AE/AESCONG>,
        <http://id.gsk.com/dataset/cdisc/sdtm-ig/v3-4/AE/AESDISAB>,
        <http://id.gsk.com/dataset/cdisc/sdtm-ig/v3-4/AE/AESDTH>,
        <http://id.gsk.com/dataset/cdisc/sdtm-ig/v3-4/AE/AESEQ>,
        <http://id.gsk.com/dataset/cdisc/sdtm-ig/v3-4/AE/AESER>,
        <http://id.gsk.com/dataset/cdisc/sdtm-ig/v3-4/AE/AESEV>,
        <http://id.gsk.com/dataset/cdisc/sdtm-ig/v3-4/AE/AESHOSP>,
        <http://id.gsk.com/dataset/cdisc/sdtm-ig/v3-4/AE/AESINTV>,
        <http://id.gsk.com/dataset/cdisc/sdtm-ig/v3-4/AE/AESLIFE>,
        <http://id.gsk.com/dataset/cdisc/sdtm-ig/v3-4/AE/AESMIE>,
        <http://id.gsk.com/dataset/cdisc/sdtm-ig/v3-4/AE/AESOC>,
        <http://id.gsk.com/dataset/cdisc/sdtm-ig/v3-4/AE/AESOCCD>,
        <http://id.gsk.com/dataset/cdisc/sdtm-ig/v3-4/AE/AESOD>,
        <http://id.gsk.com/dataset/cdisc/sdtm-ig/v3-4/AE/AESPID>,
        <http://id.gsk.com/dataset/cdisc/sdtm-ig/v3-4/AE/AESTDTC>,
        <http://id.gsk.com/dataset/cdisc/sdtm-ig/v3-4/AE/AESTDY>,
        <http://id.gsk.com/dataset/cdisc/sdtm-ig/v3-4/AE/AETERM>,
        <http://id.gsk.com/dataset/cdisc/sdtm-ig/v3-4/AE/AETOXGR>,
        <http://id.gsk.com/dataset/cdisc/sdtm-ig/v3-4/AE/AEUNANT>,
        <http://id.gsk.com/dataset/cdisc/sdtm-ig/v3-4/AE/DOMAIN>,
        <http://id.gsk.com/dataset/cdisc/sdtm-ig/v3-4/AE/EPOCH>,
        <http://id.gsk.com/dataset/cdisc/sdtm-ig/v3-4/AE/SPDEVID>,
        <http://id.gsk.com/dataset/cdisc/sdtm-ig/v3-4/AE/STUDYID>,
        <http://id.gsk.com/dataset/cdisc/sdtm-ig/v3-4/AE/TAETORD>,
        <http://id.gsk.com/dataset/cdisc/sdtm-ig/v3-4/AE/USUBJID> ;
    sdtmig:ordinal "1" ;
    sdtmig:structure "One record per adverse event per subject" ;
    dc:description "Adverse Events" ;
    dc:identifier "AE" .

<http://id.gsk.com/dataset/cdisc/sdtm-ig/v3-4/AE/AEACN> a sdtmig:Variable ;
    rdfs:label "Action Taken with Study Treatment" ;
    sdtmig:codeList <http://id.gsk.com/dataset/cdisc/ct/v48/sdtm/C66767> ;
    sdtmig:core "Exp" ;
    sdtmig:ordinal "29" ;
    sdtmig:role "Record Qualifier" ;
    sdtmig:simpleDatatype "Char" ;
    dc:description "Describes changes to the study treatment as a result of the event. AEACN is specifically for the relationship to study treatment. AEACNOTH is for actions unrelated to dose adjustments of study treatment. Examples of AEACN values include ICH E2B values: \"DRUG WITHDRAWN\", \"DOSE REDUCED\", \"DOSE INCREASED\", \"DOSE NOT CHANGED\", \"UNKNOWN\" and \"NOT APPLICABLE\"." ;
    dc:identifier "AEACN" .

<http://id.gsk.com/dataset/cdisc/sdtm-ig/v3-4/AE/AEACNDEV> a sdtmig:Variable ;
    rdfs:label "Action Taken with Device" ;
    sdtmig:codeList <http://id.gsk.com/dataset/cdisc/ct/v48/sdtm/C111110> ;
    sdtmig:core "Perm" ;
    sdtmig:ordinal "31" ;
    sdtmig:role "Record Qualifier" ;
    sdtmig:simpleDatatype "Char" ;
    dc:description "An action taken with a device as the result of the event. The device may or may not be a device under study." ;
    dc:identifier "AEACNDEV" .

<http://id.gsk.com/dataset/cdisc/sdtm-ig/v3-4/AE/AEACNOTH> a sdtmig:Variable ;
    rdfs:label "Other Action Taken" ;
    sdtmig:core "Perm" ;
    sdtmig:ordinal "30" ;
    sdtmig:role "Record Qualifier" ;
    sdtmig:simpleDatatype "Char" ;
    dc:description "Describes other actions taken as a result of the event that are unrelated to dose adjustments of study treatment. Usually reported as free text. Example: \"TREATMENT UNBLINDED. PRIMARY CARE PHYSICIAN NOTIFIED\"." ;
    dc:identifier "AEACNOTH" .

<http://id.gsk.com/dataset/cdisc/sdtm-ig/v3-4/AE/AEBDSYCD> a sdtmig:Variable ;
    rdfs:label "Body System or Organ Class Code" ;
    sdtmig:core "Exp" ;
    sdtmig:ordinal "23" ;
    sdtmig:role "Variable Qualifier" ;
    sdtmig:simpleDatatype "Num" ;
    sdtmig:valueDomain "MedDRA" ;
    dc:description "Dictionary derived. Code for the body system or organ class used by the sponsor. When using a multi-axial dictionary such as MedDRA, this should contain the SOC used for the sponsor\'s analyses and summary tables, which may not necessarily be the primary SOC." ;
    dc:identifier "AEBDSYCD" .

<http://id.gsk.com/dataset/cdisc/sdtm-ig/v3-4/AE/AEBODSYS> a sdtmig:Variable ;
    rdfs:label "Body System or Organ Class" ;
    sdtmig:core "Exp" ;
    sdtmig:ordinal "22" ;
    sdtmig:role "Record Qualifier" ;
    sdtmig:simpleDatatype "Char" ;
    dc:description "Dictionary derived. Body system or organ class used by the sponsor from the coding dictionary (e.g., MedDRA). When using a multi-axial dictionary such as MedDRA, this should contain the SOC used for the sponsor\'s analyses and summary tables, which may not necessarily be the primary SOC." ;
    dc:identifier "AEBODSYS" .

<http://id.gsk.com/dataset/cdisc/sdtm-ig/v3-4/AE/AECAT> a sdtmig:Variable ;
    rdfs:label "Category for Adverse Event" ;
    sdtmig:core "Perm" ;
    sdtmig:ordinal "19" ;
    sdtmig:role "Grouping Qualifier" ;
    sdtmig:simpleDatatype "Char" ;
    dc:description "Used to define a category of related records. Examples: \"BLEEDING\", \"NEUROPSYCHIATRIC\"." ;
    dc:identifier "AECAT" .

<http://id.gsk.com/dataset/cdisc/sdtm-ig/v3-4/AE/AECONTRT> a sdtmig:Variable ;
    rdfs:label "Concomitant or Additional Trtmnt Given" ;
    sdtmig:codeList <http://id.gsk.com/dataset/cdisc/ct/v48/sdtm/C66742> ;
    sdtmig:core "Perm" ;
    sdtmig:ordinal "49" ;
    sdtmig:role "Record Qualifier" ;
    sdtmig:simpleDatatype "Char" ;
    dc:description "Was another treatment given because of the occurrence of the event? Valid values are \"Y\" and \"N\"." ;
    dc:identifier "AECONTRT" .

<http://id.gsk.com/dataset/cdisc/sdtm-ig/v3-4/AE/AEDECOD> a sdtmig:Variable ;
    rdfs:label "Dictionary-Derived Term" ;
    sdtmig:core "Req" ;
    sdtmig:ordinal "13" ;
    sdtmig:role "Synonym Qualifier" ;
    sdtmig:simpleDatatype "Char" ;
    sdtmig:valueDomain "MedDRA" ;
    dc:description "Dictionary-derived text description of AETERM or AEMODIFY. Equivalent to the Preferred Term (PT in MedDRA). The sponsor is expected to provide the dictionary name and version used to map the terms utilizing the external codelist element in the Define-XML document." ;
    dc:identifier "AEDECOD" .

<http://id.gsk.com/dataset/cdisc/sdtm-ig/v3-4/AE/AEDUR> a sdtmig:Variable ;
    rdfs:label "Duration of Adverse Event" ;
    sdtmig:core "Perm" ;
    sdtmig:ordinal "57" ;
    sdtmig:role "Timing" ;
    sdtmig:simpleDatatype "Char" ;
    sdtmig:valueDomain "ISO 8601 duration" ;
    dc:description "Collected duration and unit of an adverse event. Used only if collected on the CRF and not derived from start and end date/times. Example: \"P1DT2H\" (for 1 day, 2 hours)." ;
    dc:identifier "AEDUR" .

<http://id.gsk.com/dataset/cdisc/sdtm-ig/v3-4/AE/AEENDTC> a sdtmig:Variable ;
    rdfs:label "End Date/Time of Adverse Event" ;
    sdtmig:core "Exp" ;
    sdtmig:ordinal "54" ;
    sdtmig:role "Timing" ;
    sdtmig:simpleDatatype "Char" ;
    sdtmig:valueDomain "ISO 8601 datetime or interval" ;
    dc:description "End date/time of the adverse event represented in ISO 8601 character format." ;
    dc:identifier "AEENDTC" .

<http://id.gsk.com/dataset/cdisc/sdtm-ig/v3-4/AE/AEENDY> a sdtmig:Variable ;
    rdfs:label "Study Day of End of Adverse Event" ;
    sdtmig:core "Perm" ;
    sdtmig:ordinal "56" ;
    sdtmig:role "Timing" ;
    sdtmig:simpleDatatype "Num" ;
    dc:description "Study day of end of event relative to the sponsor-defined RFSTDTC." ;
    dc:identifier "AEENDY" .

<http://id.gsk.com/dataset/cdisc/sdtm-ig/v3-4/AE/AEENRF> a sdtmig:Variable ;
    rdfs:label "End Relative to Reference Period" ;
    sdtmig:codeList <http://id.gsk.com/dataset/cdisc/ct/v48/sdtm/C66728> ;
    sdtmig:core "Perm" ;
    sdtmig:ordinal "58" ;
    sdtmig:role "Timing" ;
    sdtmig:simpleDatatype "Char" ;
    dc:description "Describes the end of the event relative to the sponsor-defined reference period. The sponsor-defined reference period is a continuous period of time defined by a discrete starting point (RFSTDTC) and a discrete ending point (RFENDTC) of the trial. \\n Not all values of the codelist are allowable for this variable. See Section 4.4.7, Use of Relative Timing Variables." ;
    dc:identifier "AEENRF" .

<http://id.gsk.com/dataset/cdisc/sdtm-ig/v3-4/AE/AEENRTPT> a sdtmig:Variable ;
    rdfs:label "End Relative to Reference Time Point" ;
    sdtmig:codeList <http://id.gsk.com/dataset/cdisc/ct/v48/sdtm/C66728> ;
    sdtmig:core "Perm" ;
    sdtmig:ordinal "59" ;
    sdtmig:role "Timing" ;
    sdtmig:simpleDatatype "Char" ;
    dc:description "Identifies the end of the event as being before or after the reference time point defined by variable AEENTPT. \\n Not all values of the codelist are allowable for this variable. See Section 4.4.7, Use of Relative Timing Variables." ;
    dc:identifier "AEENRTPT" .

<http://id.gsk.com/dataset/cdisc/sdtm-ig/v3-4/AE/AEENTPT> a sdtmig:Variable ;
    rdfs:label "End Reference Time Point" ;
    sdtmig:core "Perm" ;
    sdtmig:ordinal "60" ;
    sdtmig:role "Timing" ;
    sdtmig:simpleDatatype "Char" ;
    dc:description "Description of date/time in ISO 8601 character format of the reference point referred to by AEENRTPT. Examples: \"2003-12-25\", \"VISIT 2\"." ;
    dc:identifier "AEENTPT" .

<http://id.gsk.com/dataset/cdisc/sdtm-ig/v3-4/AE/AEGRPID> a sdtmig:Variable ;
    rdfs:label "Group ID" ;
    sdtmig:core "Perm" ;
    sdtmig:ordinal "6" ;
    sdtmig:role "Identifier" ;
    sdtmig:simpleDatatype "Char" ;
    dc:description "Used to tie together a block of related records in a single domain for a subject." ;
    dc:identifier "AEGRPID" .

<http://id.gsk.com/dataset/cdisc/sdtm-ig/v3-4/AE/AEHLGT> a sdtmig:Variable ;
    rdfs:label "High Level Group Term" ;
    sdtmig:core "Exp" ;
    sdtmig:ordinal "17" ;
    sdtmig:role "Variable Qualifier" ;
    sdtmig:simpleDatatype "Char" ;
    sdtmig:valueDomain "MedDRA" ;
    dc:description "Dictionary-derived text description of the high level group term for the primary SOC." ;
    dc:identifier "AEHLGT" .

<http://id.gsk.com/dataset/cdisc/sdtm-ig/v3-4/AE/AEHLGTCD> a sdtmig:Variable ;
    rdfs:label "High Level Group Term Code" ;
    sdtmig:core "Exp" ;
    sdtmig:ordinal "18" ;
    sdtmig:role "Variable Qualifier" ;
    sdtmig:simpleDatatype "Num" ;
    sdtmig:valueDomain "MedDRA" ;
    dc:description "Dictionary-derived code for the high level group term for the primary SOC." ;
    dc:identifier "AEHLGTCD" .

<http://id.gsk.com/dataset/cdisc/sdtm-ig/v3-4/AE/AEHLT> a sdtmig:Variable ;
    rdfs:label "High Level Term" ;
    sdtmig:core "Exp" ;
    sdtmig:ordinal "15" ;
    sdtmig:role "Variable Qualifier" ;
    sdtmig:simpleDatatype "Char" ;
    sdtmig:valueDomain "MedDRA" ;
    dc:description "Dictionary-derived text description of the high level term for the primary system organ class (SOC)." ;
    dc:identifier "AEHLT" .

<http://id.gsk.com/dataset/cdisc/sdtm-ig/v3-4/AE/AEHLTCD> a sdtmig:Variable ;
    rdfs:label "High Level Term Code" ;
    sdtmig:core "Exp" ;
    sdtmig:ordinal "16" ;
    sdtmig:role "Variable Qualifier" ;
    sdtmig:simpleDatatype "Num" ;
    sdtmig:valueDomain "MedDRA" ;
    dc:description "Dictionary-derived code for the high level term for the primary SOC." ;
    dc:identifier "AEHLTCD" .

<http://id.gsk.com/dataset/cdisc/sdtm-ig/v3-4/AE/AELLT> a sdtmig:Variable ;
    rdfs:label "Lowest Level Term" ;
    sdtmig:core "Exp" ;
    sdtmig:ordinal "11" ;
    sdtmig:role "Variable Qualifier" ;
    sdtmig:simpleDatatype "Char" ;
    sdtmig:valueDomain "MedDRA" ;
    dc:description "Dictionary-derived text description of the lowest level term." ;
    dc:identifier "AELLT" .

<http://id.gsk.com/dataset/cdisc/sdtm-ig/v3-4/AE/AELLTCD> a sdtmig:Variable ;
    rdfs:label "Lowest Level Term Code" ;
    sdtmig:core "Exp" ;
    sdtmig:ordinal "12" ;
    sdtmig:role "Variable Qualifier" ;
    sdtmig:simpleDatatype "Num" ;
    sdtmig:valueDomain "MedDRA" ;
    dc:description "Dictionary-derived code for the lowest level term." ;
    dc:identifier "AELLTCD" .

<http://id.gsk.com/dataset/cdisc/sdtm-ig/v3-4/AE/AELOC> a sdtmig:Variable ;
    rdfs:label "Location of Event" ;
    sdtmig:codeList <http://id.gsk.com/dataset/cdisc/ct/v48/sdtm/C74456> ;
    sdtmig:core "Perm" ;
    sdtmig:ordinal "26" ;
    sdtmig:role "Record Qualifier" ;
    sdtmig:simpleDatatype "Char" ;
    dc:description "Describes anatomical location relevant for the event (e.g., \"ARM\" for skin rash)." ;
    dc:identifier "AELOC" .

<http://id.gsk.com/dataset/cdisc/sdtm-ig/v3-4/AE/AEMODIFY> a sdtmig:Variable ;
    rdfs:label "Modified Reported Term" ;
    sdtmig:core "Perm" ;
    sdtmig:ordinal "10" ;
    sdtmig:role "Synonym Qualifier" ;
    sdtmig:simpleDatatype "Char" ;
    dc:description "If AETERM is modified to facilitate coding, then AEMODIFY will contain the modified text." ;
    dc:identifier "AEMODIFY" .

<http://id.gsk.com/dataset/cdisc/sdtm-ig/v3-4/AE/AEOUT> a sdtmig:Variable ;
    rdfs:label "Outcome of Adverse Event" ;
    sdtmig:codeList <http://id.gsk.com/dataset/cdisc/ct/v48/sdtm/C66768> ;
    sdtmig:core "Perm" ;
    sdtmig:ordinal "36" ;
    sdtmig:role "Record Qualifier" ;
    sdtmig:simpleDatatype "Char" ;
    dc:description "Description of the outcome of an event." ;
    dc:identifier "AEOUT" .

<http://id.gsk.com/dataset/cdisc/sdtm-ig/v3-4/AE/AEPATT> a sdtmig:Variable ;
    rdfs:label "Pattern of Adverse Event" ;
    sdtmig:core "Perm" ;
    sdtmig:ordinal "35" ;
    sdtmig:role "Record Qualifier" ;
    sdtmig:simpleDatatype "Char" ;
    dc:description "Used to indicate the pattern of the event over time. Examples: \"INTERMITTENT\", \"CONTINUOUS\", \"SINGLE EVENT\"." ;
    dc:identifier "AEPATT" .

<http://id.gsk.com/dataset/cdisc/sdtm-ig/v3-4/AE/AEPRESP> a sdtmig:Variable ;
    rdfs:label "Pre-Specified Adverse Event" ;
    sdtmig:codeList <http://id.gsk.com/dataset/cdisc/ct/v48/sdtm/C66742> ;
    sdtmig:core "Perm" ;
    sdtmig:ordinal "21" ;
    sdtmig:role "Variable Qualifier" ;
    sdtmig:simpleDatatype "Char" ;
    dc:description "A value of \"Y\" indicates that this adverse event was prespecified on the CRF. Values are null for spontaneously reported events (i.e., those collected as free-text verbatim terms)." ;
    dc:identifier "AEPRESP" .

<http://id.gsk.com/dataset/cdisc/sdtm-ig/v3-4/AE/AEPTCD> a sdtmig:Variable ;
    rdfs:label "Preferred Term Code" ;
    sdtmig:core "Exp" ;
    sdtmig:ordinal "14" ;
    sdtmig:role "Variable Qualifier" ;
    sdtmig:simpleDatatype "Num" ;
    sdtmig:valueDomain "MedDRA" ;
    dc:description "Dictionary-derived code for the preferred term." ;
    dc:identifier "AEPTCD" .

<http://id.gsk.com/dataset/cdisc/sdtm-ig/v3-4/AE/AEREFID> a sdtmig:Variable ;
    rdfs:label "Reference ID" ;
    sdtmig:core "Perm" ;
    sdtmig:ordinal "7" ;
    sdtmig:role "Identifier" ;
    sdtmig:simpleDatatype "Char" ;
    dc:description "Internal or external identifier such as a serial number on an SAE reporting form." ;
    dc:identifier "AEREFID" .

<http://id.gsk.com/dataset/cdisc/sdtm-ig/v3-4/AE/AEREL> a sdtmig:Variable ;
    rdfs:label "Causality" ;
    sdtmig:core "Exp" ;
    sdtmig:ordinal "32" ;
    sdtmig:role "Record Qualifier" ;
    sdtmig:simpleDatatype "Char" ;
    dc:description "Records the investigator\'s opinion as to the causality of the event to the treatment. ICH does not establish any required or recommended terms for non-device relatedness. ICH E2A and E2B examples include (up-cased here for alignment to SDTM conventions) terms such as \"NOT RELATED\", \"UNLIKELY RELATED\", \"POSSIBLY RELATED\", \"RELATED\", but these example terms do not establish any conventions or expectations. Controlled terminology may be defined in the future. Check with regulatory authority for population of this variable." ;
    dc:identifier "AEREL" .

<http://id.gsk.com/dataset/cdisc/sdtm-ig/v3-4/AE/AERELNST> a sdtmig:Variable ;
    rdfs:label "Relationship to Non-Study Treatment" ;
    sdtmig:core "Perm" ;
    sdtmig:ordinal "34" ;
    sdtmig:role "Record Qualifier" ;
    sdtmig:simpleDatatype "Char" ;
    dc:description "Records the investigator\'s opinion as to whether the event may have been due to a treatment other than study drug. May be reported as free text. Example: \"MORE LIKELY RELATED TO ASPIRIN USE\"." ;
    dc:identifier "AERELNST" .

<http://id.gsk.com/dataset/cdisc/sdtm-ig/v3-4/AE/AERLDEV> a sdtmig:Variable ;
    rdfs:label "Relationship of Event to Device" ;
    sdtmig:core "Perm" ;
    sdtmig:ordinal "33" ;
    sdtmig:role "Record Qualifier" ;
    sdtmig:simpleDatatype "Char" ;
    dc:description "A judgment as to the likelihood that the device caused the adverse event. The relationship is to a device identified in the data (i.e., has an SPDEVID). The device may be ancillary or under study. \\n Terminology: \\n * In the EU, follow the European Commission Guidelines on Medical Devices, Clinical Investigations: SAE Reporting (MEDDEV 2.7/3) (e.g., Not Related, Unlikely, Possible, Probable, Causal Relationship), with device-specific definitions. \\n * No required Controlled Terminology in US." ;
    dc:identifier "AERLDEV" .

<http://id.gsk.com/dataset/cdisc/sdtm-ig/v3-4/AE/AERLPRC> a sdtmig:Variable ;
    rdfs:label "Rel of AE to Device-Related Procedure" ;
    sdtmig:core "Perm" ;
    sdtmig:ordinal "48" ;
    sdtmig:role "Record Qualifier" ;
    sdtmig:simpleDatatype "Char" ;
    dc:description "The investigator\'s opinion as to the likelihood that the device-related study procedure (e.g., implant/insertion, revision/adjustment, explant/removal) caused the AE. The relationship is to a device-related procedure where the device is identified in the data (i.e., has an SPDEVID). The device may be ancillary or under study. \\n Terminology: \\n * In the EU, follow the European Commission Guidelines on Medical Devices, Clinical Investigations: SAE Reporting (MEDDEV 2.7/3) (e.g., Not Related, Unlikely, Possible, Probable, Causal Relationship), with device-specific definitions. \\n * No required Controlled Terminology in US." ;
    dc:identifier "AERLPRC" .

<http://id.gsk.com/dataset/cdisc/sdtm-ig/v3-4/AE/AERLPRT> a sdtmig:Variable ;
    rdfs:label "Rel of AE to Non-Dev-Rel Study Activity" ;
    sdtmig:core "Perm" ;
    sdtmig:ordinal "47" ;
    sdtmig:role "Record Qualifier" ;
    sdtmig:simpleDatatype "Char" ;
    dc:description "The investigator\'s opinion as to the causality of the event as related to other protocol-required activities, actions, or assessments (e.g., medication changes, tests/assessments, other procedures). The relationship is to a protocol-specified, non-device-related activity where the device is identified in the data (i.e., has an SPDEVID). The device may be ancillary or under study. \\n Terminology: \\n * In the EU, follow the European Commission Guidelines on Medical Devices, Clinical Investigations: SAE Reporting (MEDDEV 2.7/3) (e.g., Not Related, Unlikely, Possible, Probable, Causal Relationship), with device-specific definitions. \\n * No required Controlled Terminology in US." ;
    dc:identifier "AERLPRT" .

<http://id.gsk.com/dataset/cdisc/sdtm-ig/v3-4/AE/AESCAN> a sdtmig:Variable ;
    rdfs:label "Involves Cancer" ;
    sdtmig:codeList <http://id.gsk.com/dataset/cdisc/ct/v48/sdtm/C66742> ;
    sdtmig:core "Perm" ;
    sdtmig:ordinal "37" ;
    sdtmig:role "Record Qualifier" ;
    sdtmig:simpleDatatype "Char" ;
    dc:description "Was the serious event associated with the development of cancer? Valid values are \"Y\" and \"N\". This is a legacy seriousness criterion. It is not included in ICH E2A or E2B." ;
    dc:identifier "AESCAN" .

<http://id.gsk.com/dataset/cdisc/sdtm-ig/v3-4/AE/AESCAT> a sdtmig:Variable ;
    rdfs:label "Subcategory for Adverse Event" ;
    sdtmig:core "Perm" ;
    sdtmig:ordinal "20" ;
    sdtmig:role "Grouping Qualifier" ;
    sdtmig:simpleDatatype "Char" ;
    dc:description "A further categorization of adverse event. Example: \"NEUROLOGIC\"." ;
    dc:identifier "AESCAT" .

<http://id.gsk.com/dataset/cdisc/sdtm-ig/v3-4/AE/AESCONG> a sdtmig:Variable ;
    rdfs:label "Congenital Anomaly or Birth Defect" ;
    sdtmig:codeList <http://id.gsk.com/dataset/cdisc/ct/v48/sdtm/C66742> ;
    sdtmig:core "Perm" ;
    sdtmig:ordinal "38" ;
    sdtmig:role "Record Qualifier" ;
    sdtmig:simpleDatatype "Char" ;
    dc:description "Was the serious event associated with congenital anomaly or birth defect? Valid values are \"Y\" and \"N\"." ;
    dc:identifier "AESCONG" .

<http://id.gsk.com/dataset/cdisc/sdtm-ig/v3-4/AE/AESDISAB> a sdtmig:Variable ;
    rdfs:label "Persist or Signif Disability/Incapacity" ;
    sdtmig:codeList <http://id.gsk.com/dataset/cdisc/ct/v48/sdtm/C66742> ;
    sdtmig:core "Perm" ;
    sdtmig:ordinal "39" ;
    sdtmig:role "Record Qualifier" ;
    sdtmig:simpleDatatype "Char" ;
    dc:description "Did the serious event result in persistent or significant disability/incapacity? Valid values are \"Y\" and \"N\"." ;
    dc:identifier "AESDISAB" .

<http://id.gsk.com/dataset/cdisc/sdtm-ig/v3-4/AE/AESDTH> a sdtmig:Variable ;
    rdfs:label "Results in Death" ;
    sdtmig:codeList <http://id.gsk.com/dataset/cdisc/ct/v48/sdtm/C66742> ;
    sdtmig:core "Perm" ;
    sdtmig:ordinal "40" ;
    sdtmig:role "Record Qualifier" ;
    sdtmig:simpleDatatype "Char" ;
    dc:description "Did the serious event result in death? Valid values are \"Y\" and \"N\"." ;
    dc:identifier "AESDTH" .

<http://id.gsk.com/dataset/cdisc/sdtm-ig/v3-4/AE/AESEQ> a sdtmig:Variable ;
    rdfs:label "Sequence Number" ;
    sdtmig:core "Req" ;
    sdtmig:ordinal "5" ;
    sdtmig:role "Identifier" ;
    sdtmig:simpleDatatype "Num" ;
    dc:description "Sequence number given to ensure uniqueness of subject records within a domain. May be any valid number." ;
    dc:identifier "AESEQ" .

<http://id.gsk.com/dataset/cdisc/sdtm-ig/v3-4/AE/AESER> a sdtmig:Variable ;
    rdfs:label "Serious Event" ;
    sdtmig:codeList <http://id.gsk.com/dataset/cdisc/ct/v48/sdtm/C66742> ;
    sdtmig:core "Exp" ;
    sdtmig:ordinal "28" ;
    sdtmig:role "Record Qualifier" ;
    sdtmig:simpleDatatype "Char" ;
    dc:description "Is this a serious event? Valid values are \"Y\" and \"N\"." ;
    dc:identifier "AESER" .

<http://id.gsk.com/dataset/cdisc/sdtm-ig/v3-4/AE/AESEV> a sdtmig:Variable ;
    rdfs:label "Severity/Intensity" ;
    sdtmig:codeList <http://id.gsk.com/dataset/cdisc/ct/v48/sdtm/C66769> ;
    sdtmig:core "Perm" ;
    sdtmig:ordinal "27" ;
    sdtmig:role "Record Qualifier" ;
    sdtmig:simpleDatatype "Char" ;
    dc:description "The severity or intensity of the event. Examples: \"MILD\", \"MODERATE\", \"SEVERE\"." ;
    dc:identifier "AESEV" .

<http://id.gsk.com/dataset/cdisc/sdtm-ig/v3-4/AE/AESHOSP> a sdtmig:Variable ;
    rdfs:label "Requires or Prolongs Hospitalization" ;
    sdtmig:codeList <http://id.gsk.com/dataset/cdisc/ct/v48/sdtm/C66742> ;
    sdtmig:core "Perm" ;
    sdtmig:ordinal "41" ;
    sdtmig:role "Record Qualifier" ;
    sdtmig:simpleDatatype "Char" ;
    dc:description "Did the serious event require or prolong hospitalization? Valid values are \"Y\" and \"N\"." ;
    dc:identifier "AESHOSP" .

<http://id.gsk.com/dataset/cdisc/sdtm-ig/v3-4/AE/AESINTV> a sdtmig:Variable ;
    rdfs:label "Needs Intervention to Prevent Impairment" ;
    sdtmig:codeList <http://id.gsk.com/dataset/cdisc/ct/v48/sdtm/C66742> ;
    sdtmig:core "Perm" ;
    sdtmig:ordinal "45" ;
    sdtmig:role "Record Qualifier" ;
    sdtmig:simpleDatatype "Char" ;
    dc:description "Records whether medical or surgical intervention was necessary to preclude permanent impairment of a body function, or to prevent permanent damage to a body structure, with either situation suspected to be due to the use of a medical product. This variable is used in conjunction with the other \"seriousness\" variables (e.g., fatal, life-threatening). It is part of the US federal government definition of a serious adverse event; see 21 CFR Part 803.3(w)(3)." ;
    dc:identifier "AESINTV" .

<http://id.gsk.com/dataset/cdisc/sdtm-ig/v3-4/AE/AESLIFE> a sdtmig:Variable ;
    rdfs:label "Is Life Threatening" ;
    sdtmig:codeList <http://id.gsk.com/dataset/cdisc/ct/v48/sdtm/C66742> ;
    sdtmig:core "Perm" ;
    sdtmig:ordinal "42" ;
    sdtmig:role "Record Qualifier" ;
    sdtmig:simpleDatatype "Char" ;
    dc:description "Was the serious event life-threatening? Valid values are \"Y\" and \"N\"." ;
    dc:identifier "AESLIFE" .

<http://id.gsk.com/dataset/cdisc/sdtm-ig/v3-4/AE/AESMIE> a sdtmig:Variable ;
    rdfs:label "Other Medically Important Serious Event" ;
    sdtmig:codeList <http://id.gsk.com/dataset/cdisc/ct/v48/sdtm/C66742> ;
    sdtmig:core "Perm" ;
    sdtmig:ordinal "44" ;
    sdtmig:role "Record Qualifier" ;
    sdtmig:simpleDatatype "Char" ;
    dc:description "Do additional categories for seriousness apply? Valid values are \"Y\" and \"N\"." ;
    dc:identifier "AESMIE" .

<http://id.gsk.com/dataset/cdisc/sdtm-ig/v3-4/AE/AESOC> a sdtmig:Variable ;
    rdfs:label "Primary System Organ Class" ;
    sdtmig:core "Exp" ;
    sdtmig:ordinal "24" ;
    sdtmig:role "Variable Qualifier" ;
    sdtmig:simpleDatatype "Char" ;
    sdtmig:valueDomain "MedDRA" ;
    dc:description "Dictionary-derived text description of the primary SOC. Will be the same as AEBODSYS if the primary SOC was used for analysis." ;
    dc:identifier "AESOC" .

<http://id.gsk.com/dataset/cdisc/sdtm-ig/v3-4/AE/AESOCCD> a sdtmig:Variable ;
    rdfs:label "Primary System Organ Class Code" ;
    sdtmig:core "Exp" ;
    sdtmig:ordinal "25" ;
    sdtmig:role "Variable Qualifier" ;
    sdtmig:simpleDatatype "Num" ;
    sdtmig:valueDomain "MedDRA" ;
    dc:description "Dictionary-derived code for the primary SOC. Will be the same as AEBDSYCD if the primary SOC was used for analysis." ;
    dc:identifier "AESOCCD" .

<http://id.gsk.com/dataset/cdisc/sdtm-ig/v3-4/AE/AESOD> a sdtmig:Variable ;
    rdfs:label "Occurred with Overdose" ;
    sdtmig:codeList <http://id.gsk.com/dataset/cdisc/ct/v48/sdtm/C66742> ;
    sdtmig:core "Perm" ;
    sdtmig:ordinal "43" ;
    sdtmig:role "Record Qualifier" ;
    sdtmig:simpleDatatype "Char" ;
    dc:description "Did the serious event occur with an overdose? Valid values are \"Y\" and \"N\". This is a legacy seriousness criterion. It is not included in ICH E2A or E2B." ;
    dc:identifier "AESOD" .

<http://id.gsk.com/dataset/cdisc/sdtm-ig/v3-4/AE/AESPID> a sdtmig:Variable ;
    rdfs:label "Sponsor-Defined Identifier" ;
    sdtmig:core "Perm" ;
    sdtmig:ordinal "8" ;
    sdtmig:role "Identifier" ;
    sdtmig:simpleDatatype "Char" ;
    dc:description "Sponsor-defined identifier. It may be preprinted on the CRF as an explicit line identifier or defined in the sponsor\'s operational database. Example: Line number on an Adverse Events CRF page." ;
    dc:identifier "AESPID" .

<http://id.gsk.com/dataset/cdisc/sdtm-ig/v3-4/AE/AESTDTC> a sdtmig:Variable ;
    rdfs:label "Start Date/Time of Adverse Event" ;
    sdtmig:core "Exp" ;
    sdtmig:ordinal "53" ;
    sdtmig:role "Timing" ;
    sdtmig:simpleDatatype "Char" ;
    sdtmig:valueDomain "ISO 8601 datetime or interval" ;
    dc:description "Start date/time of the adverse event represented in ISO 8601 character format." ;
    dc:identifier "AESTDTC" .

<http://id.gsk.com/dataset/cdisc/sdtm-ig/v3-4/AE/AESTDY> a sdtmig:Variable ;
    rdfs:label "Study Day of Start of Adverse Event" ;
    sdtmig:core "Perm" ;
    sdtmig:ordinal "55" ;
    sdtmig:role "Timing" ;
    sdtmig:simpleDatatype "Num" ;
    dc:description "Study day of start of adverse event relative to the sponsor-defined RFSTDTC." ;
    dc:identifier "AESTDY" .

<http://id.gsk.com/dataset/cdisc/sdtm-ig/v3-4/AE/AETERM> a sdtmig:Variable ;
    rdfs:label "Reported Term for the Adverse Event" ;
    sdtmig:core "Req" ;
    sdtmig:ordinal "9" ;
    sdtmig:role "Topic" ;
    sdtmig:simpleDatatype "Char" ;
    dc:description "Verbatim name of the event." ;
    dc:identifier "AETERM" .

<http://id.gsk.com/dataset/cdisc/sdtm-ig/v3-4/AE/AETOXGR> a sdtmig:Variable ;
    rdfs:label "Standard Toxicity Grade" ;
    sdtmig:core "Perm" ;
    sdtmig:ordinal "50" ;
    sdtmig:role "Record Qualifier" ;
    sdtmig:simpleDatatype "Char" ;
    dc:description "Toxicity grade according to a standard toxicity scale (e.g., Common Terminology Criteria for Adverse Events, CTCAE). Sponsors should specify the name of the scale and version used in the metadata (see assumption 7d). If value is from a numeric scale, represent only the number (e.g., \"2\", not \"Grade 2\")." ;
    dc:identifier "AETOXGR" .

<http://id.gsk.com/dataset/cdisc/sdtm-ig/v3-4/AE/AEUNANT> a sdtmig:Variable ;
    rdfs:label "Unanticipated Adverse Device Effect" ;
    sdtmig:codeList <http://id.gsk.com/dataset/cdisc/ct/v48/sdtm/C66742> ;
    sdtmig:core "Perm" ;
    sdtmig:ordinal "46" ;
    sdtmig:role "Record Qualifier" ;
    sdtmig:simpleDatatype "Char" ;
    dc:description "Any serious adverse effect on health or safety or any life-threatening problem or death caused by or associated with a device, if that effect, problem, or death was not previously identified in nature, severity, or degree of incidence in the investigational plan or application (including a supplementary plan or application), \\n or \\n any other unanticipated serious problem associated with a device that relates to the rights, safety, or welfare of subjects. (21 CFR Part 812.3(s)). \\n This variable applies only to serious AEs and should hold collected data; if the value is derived, it should be held in ADaM." ;
    dc:identifier "AEUNANT" .

<http://id.gsk.com/dataset/cdisc/sdtm-ig/v3-4/AE/DOMAIN> a sdtmig:Variable ;
    rdfs:label "Domain Abbreviation" ;
    sdtmig:core "Req" ;
    sdtmig:ordinal "2" ;
    sdtmig:role "Identifier" ;
    sdtmig:simpleDatatype "Char" ;
    dc:description "Two-character abbreviation for the domain." ;
    dc:identifier "DOMAIN" .

<http://id.gsk.com/dataset/cdisc/sdtm-ig/v3-4/AE/EPOCH> a sdtmig:Variable ;
    rdfs:label "Epoch" ;
    sdtmig:codeList <http://id.gsk.com/dataset/cdisc/ct/v48/sdtm/C99079> ;
    sdtmig:core "Perm" ;
    sdtmig:ordinal "52" ;
    sdtmig:role "Timing" ;
    sdtmig:simpleDatatype "Char" ;
    dc:description "Epoch associated with the start date/time of the adverse event. Examples: \"SCREENING\", \"TREATMENT\", \"FOLLOW-UP\"." ;
    dc:identifier "EPOCH" .

<http://id.gsk.com/dataset/cdisc/sdtm-ig/v3-4/AE/SPDEVID> a sdtmig:Variable ;
    rdfs:label "Sponsor Device Identifier" ;
    sdtmig:core "Perm" ;
    sdtmig:ordinal "4" ;
    sdtmig:role "Identifier" ;
    sdtmig:simpleDatatype "Char" ;
    dc:description "A sequence of characters used by the sponsor to uniquely identify a specific device. Used to represent a device associated in some way with the adverse event. SPDEVID values are defined in the Device Identifiers (DI) domain." ;
    dc:identifier "SPDEVID" .

<http://id.gsk.com/dataset/cdisc/sdtm-ig/v3-4/AE/STUDYID> a sdtmig:Variable ;
    rdfs:label "Study Identifier" ;
    sdtmig:core "Req" ;
    sdtmig:ordinal "1" ;
    sdtmig:role "Identifier" ;
    sdtmig:simpleDatatype "Char" ;
    dc:description "Unique identifier for a study." ;
    dc:identifier "STUDYID" .

<http://id.gsk.com/dataset/cdisc/sdtm-ig/v3-4/AE/TAETORD> a sdtmig:Variable ;
    rdfs:label "Planned Order of Element within Arm" ;
    sdtmig:core "Perm" ;
    sdtmig:ordinal "51" ;
    sdtmig:role "Timing" ;
    sdtmig:simpleDatatype "Num" ;
    dc:description "Number that gives the planned order of the element within the arm." ;
    dc:identifier "TAETORD" .

<http://id.gsk.com/dataset/cdisc/sdtm-ig/v3-4/AE/USUBJID> a sdtmig:Variable ;
    rdfs:label "Unique Subject Identifier" ;
    sdtmig:core "Req" ;
    sdtmig:ordinal "3" ;
    sdtmig:role "Identifier" ;
    sdtmig:simpleDatatype "Char" ;
    dc:description "Identifier used to uniquely identify a subject across all studies for all applications or submissions involving the product." ;
    dc:identifier "USUBJID" .

<http://id.gsk.com/dataset/cdisc/sdtm-ig/v3-4/AG> a sdtmig:Domain ;
    rdfs:label "Procedure Agents" ;
    sdtmig:hasVariable <http://id.gsk.com/dataset/cdisc/sdtm-ig/v3-4/AG/AGCAT>,
        <http://id.gsk.com/dataset/cdisc/sdtm-ig/v3-4/AG/AGCLAS>,
        <http://id.gsk.com/dataset/cdisc/sdtm-ig/v3-4/AG/AGCLASCD>,
        <http://id.gsk.com/dataset/cdisc/sdtm-ig/v3-4/AG/AGDECOD>,
        <http://id.gsk.com/dataset/cdisc/sdtm-ig/v3-4/AG/AGDOSE>,
        <http://id.gsk.com/dataset/cdisc/sdtm-ig/v3-4/AG/AGDOSFRM>,
        <http://id.gsk.com/dataset/cdisc/sdtm-ig/v3-4/AG/AGDOSFRQ>,
        <http://id.gsk.com/dataset/cdisc/sdtm-ig/v3-4/AG/AGDOSTXT>,
        <http://id.gsk.com/dataset/cdisc/sdtm-ig/v3-4/AG/AGDOSU>,
        <http://id.gsk.com/dataset/cdisc/sdtm-ig/v3-4/AG/AGDUR>,
        <http://id.gsk.com/dataset/cdisc/sdtm-ig/v3-4/AG/AGENDTC>,
        <http://id.gsk.com/dataset/cdisc/sdtm-ig/v3-4/AG/AGENDY>,
        <http://id.gsk.com/dataset/cdisc/sdtm-ig/v3-4/AG/AGENRF>,
        <http://id.gsk.com/dataset/cdisc/sdtm-ig/v3-4/AG/AGENRTPT>,
        <http://id.gsk.com/dataset/cdisc/sdtm-ig/v3-4/AG/AGENTPT>,
        <http://id.gsk.com/dataset/cdisc/sdtm-ig/v3-4/AG/AGGRPID>,
        <http://id.gsk.com/dataset/cdisc/sdtm-ig/v3-4/AG/AGLNKGRP>,
        <http://id.gsk.com/dataset/cdisc/sdtm-ig/v3-4/AG/AGLNKID>,
        <http://id.gsk.com/dataset/cdisc/sdtm-ig/v3-4/AG/AGMODIFY>,
        <http://id.gsk.com/dataset/cdisc/sdtm-ig/v3-4/AG/AGOCCUR>,
        <http://id.gsk.com/dataset/cdisc/sdtm-ig/v3-4/AG/AGPRESP>,
        <http://id.gsk.com/dataset/cdisc/sdtm-ig/v3-4/AG/AGREASND>,
        <http://id.gsk.com/dataset/cdisc/sdtm-ig/v3-4/AG/AGROUTE>,
        <http://id.gsk.com/dataset/cdisc/sdtm-ig/v3-4/AG/AGSCAT>,
        <http://id.gsk.com/dataset/cdisc/sdtm-ig/v3-4/AG/AGSEQ>,
        <http://id.gsk.com/dataset/cdisc/sdtm-ig/v3-4/AG/AGSPID>,
        <http://id.gsk.com/dataset/cdisc/sdtm-ig/v3-4/AG/AGSTAT>,
        <http://id.gsk.com/dataset/cdisc/sdtm-ig/v3-4/AG/AGSTDTC>,
        <http://id.gsk.com/dataset/cdisc/sdtm-ig/v3-4/AG/AGSTDY>,
        <http://id.gsk.com/dataset/cdisc/sdtm-ig/v3-4/AG/AGSTRF>,
        <http://id.gsk.com/dataset/cdisc/sdtm-ig/v3-4/AG/AGSTRTPT>,
        <http://id.gsk.com/dataset/cdisc/sdtm-ig/v3-4/AG/AGSTTPT>,
        <http://id.gsk.com/dataset/cdisc/sdtm-ig/v3-4/AG/AGTRT>,
        <http://id.gsk.com/dataset/cdisc/sdtm-ig/v3-4/AG/DOMAIN>,
        <http://id.gsk.com/dataset/cdisc/sdtm-ig/v3-4/AG/EPOCH>,
        <http://id.gsk.com/dataset/cdisc/sdtm-ig/v3-4/AG/STUDYID>,
        <http://id.gsk.com/dataset/cdisc/sdtm-ig/v3-4/AG/TAETORD>,
        <http://id.gsk.com/dataset/cdisc/sdtm-ig/v3-4/AG/USUBJID>,
        <http://id.gsk.com/dataset/cdisc/sdtm-ig/v3-4/AG/VISIT>,
        <http://id.gsk.com/dataset/cdisc/sdtm-ig/v3-4/AG/VISITDY>,
        <http://id.gsk.com/dataset/cdisc/sdtm-ig/v3-4/AG/VISITNUM> ;
    sdtmig:ordinal "2" ;
    sdtmig:structure "One record per recorded intervention occurrence per subject" ;
    dc:description "Procedure Agents" ;
    dc:identifier "AG" .

<http://id.gsk.com/dataset/cdisc/sdtm-ig/v3-4/AG/AGCAT> a sdtmig:Variable ;
    rdfs:label "Category for Agent" ;
    sdtmig:core "Perm" ;
    sdtmig:ordinal "12" ;
    sdtmig:role "Grouping Qualifier" ;
    sdtmig:simpleDatatype "Char" ;
    dc:description "Used to define a category of agent. Examples: \"CHALLENGE AGENT\", \"PET TRACER\"." ;
    dc:identifier "AGCAT" .

<http://id.gsk.com/dataset/cdisc/sdtm-ig/v3-4/AG/AGCLAS> a sdtmig:Variable ;
    rdfs:label "Agent Class" ;
    sdtmig:core "Perm" ;
    sdtmig:ordinal "18" ;
    sdtmig:role "Variable Qualifier" ;
    sdtmig:simpleDatatype "Char" ;
    dc:description "Drug class. May be obtained from coding. When coding to a single class, populate with class value. If using a dictionary and coding to multiple classes, follow guidance in Section 4.2.8.3, Multiple Values for a Non-result Qualifier Variable, or omit AGCLAS." ;
    dc:identifier "AGCLAS" .

<http://id.gsk.com/dataset/cdisc/sdtm-ig/v3-4/AG/AGCLASCD> a sdtmig:Variable ;
    rdfs:label "Agent Class Code" ;
    sdtmig:core "Perm" ;
    sdtmig:ordinal "19" ;
    sdtmig:role "Variable Qualifier" ;
    sdtmig:simpleDatatype "Char" ;
    dc:description "Class code corresponding to AGCLAS. Drug class. May be obtained from coding. When coding to a single class, populate with class code. If using a dictionary and coding to multiple classes, follow guidance in Section 4.2.8.3, Multiple Values for a Non-result Qualifier Variable, or omit AGCLASCD." ;
    dc:identifier "AGCLASCD" .

<http://id.gsk.com/dataset/cdisc/sdtm-ig/v3-4/AG/AGDECOD> a sdtmig:Variable ;
    rdfs:label "Standardized Agent Name" ;
    sdtmig:core "Perm" ;
    sdtmig:ordinal "11" ;
    sdtmig:role "Synonym Qualifier" ;
    sdtmig:simpleDatatype "Char" ;
    dc:description "Standardized or dictionary-derived text description of AGTRT or AGMODIFY. Equivalent to the generic medication name in WHO Drug. The sponsor is expected to provide the dictionary name and version used to map the terms utilizing the external codelist element in the Define-XML document. If an intervention term does not have a decode value in the dictionary, then AGDECOD will be left blank." ;
    dc:identifier "AGDECOD" .

<http://id.gsk.com/dataset/cdisc/sdtm-ig/v3-4/AG/AGDOSE> a sdtmig:Variable ;
    rdfs:label "Dose per Administration" ;
    sdtmig:core "Perm" ;
    sdtmig:ordinal "20" ;
    sdtmig:role "Record Qualifier" ;
    sdtmig:simpleDatatype "Num" ;
    dc:description "Amount of AGTRT taken." ;
    dc:identifier "AGDOSE" .

<http://id.gsk.com/dataset/cdisc/sdtm-ig/v3-4/AG/AGDOSFRM> a sdtmig:Variable ;
    rdfs:label "Dose Form" ;
    sdtmig:codeList <http://id.gsk.com/dataset/cdisc/ct/v48/sdtm/C66726> ;
    sdtmig:core "Perm" ;
    sdtmig:ordinal "23" ;
    sdtmig:role "Variable Qualifier" ;
    sdtmig:simpleDatatype "Char" ;
    dc:description "Dose form for AGTRT. Examples: \"TABLET\", \"AEROSOL\"." ;
    dc:identifier "AGDOSFRM" .

<http://id.gsk.com/dataset/cdisc/sdtm-ig/v3-4/AG/AGDOSFRQ> a sdtmig:Variable ;
    rdfs:label "Dosing Frequency per Interval" ;
    sdtmig:codeList <http://id.gsk.com/dataset/cdisc/ct/v48/sdtm/C71113> ;
    sdtmig:core "Perm" ;
    sdtmig:ordinal "24" ;
    sdtmig:role "Record Qualifier" ;
    sdtmig:simpleDatatype "Char" ;
    dc:description "Usually expressed as the number of repeated administrations of AGDOSE within a specific time period. Example: \"ONCE\"." ;
    dc:identifier "AGDOSFRQ" .

<http://id.gsk.com/dataset/cdisc/sdtm-ig/v3-4/AG/AGDOSTXT> a sdtmig:Variable ;
    rdfs:label "Dose Description" ;
    sdtmig:core "Perm" ;
    sdtmig:ordinal "21" ;
    sdtmig:role "Record Qualifier" ;
    sdtmig:simpleDatatype "Char" ;
    dc:description "Dosing amounts or a range of dosing information collected in text form. Units may be stored in AGDOSU. Examples: \"200-400\", \"15-20\"." ;
    dc:identifier "AGDOSTXT" .

<http://id.gsk.com/dataset/cdisc/sdtm-ig/v3-4/AG/AGDOSU> a sdtmig:Variable ;
    rdfs:label "Dose Units" ;
    sdtmig:codeList <http://id.gsk.com/dataset/cdisc/ct/v48/sdtm/C71620> ;
    sdtmig:core "Perm" ;
    sdtmig:ordinal "22" ;
    sdtmig:role "Variable Qualifier" ;
    sdtmig:simpleDatatype "Char" ;
    dc:description "Units for AGDOSE and AGDOSTXT. Examples: \"ng\", \"mg\", \"mg/kg\"." ;
    dc:identifier "AGDOSU" .

<http://id.gsk.com/dataset/cdisc/sdtm-ig/v3-4/AG/AGDUR> a sdtmig:Variable ;
    rdfs:label "Duration of Agent" ;
    sdtmig:core "Perm" ;
    sdtmig:ordinal "35" ;
    sdtmig:role "Timing" ;
    sdtmig:simpleDatatype "Char" ;
    sdtmig:valueDomain "ISO 8601 duration" ;
    dc:description "Collected duration for an agent episode. Used only if collected on the CRF and not derived from start and end date/times." ;
    dc:identifier "AGDUR" .

<http://id.gsk.com/dataset/cdisc/sdtm-ig/v3-4/AG/AGENDTC> a sdtmig:Variable ;
    rdfs:label "End Date/Time of Agent" ;
    sdtmig:core "Perm" ;
    sdtmig:ordinal "32" ;
    sdtmig:role "Timing" ;
    sdtmig:simpleDatatype "Char" ;
    sdtmig:valueDomain "ISO 8601 datetime or interval" ;
    dc:description "The date/time when administration of the treatment indicated by AGTRT and the dosing variables ended." ;
    dc:identifier "AGENDTC" .

<http://id.gsk.com/dataset/cdisc/sdtm-ig/v3-4/AG/AGENDY> a sdtmig:Variable ;
    rdfs:label "Study Day of End of Agent" ;
    sdtmig:core "Perm" ;
    sdtmig:ordinal "34" ;
    sdtmig:role "Timing" ;
    sdtmig:simpleDatatype "Num" ;
    dc:description "Study day of end of agent relative to the sponsor-defined RFSTDTC." ;
    dc:identifier "AGENDY" .

<http://id.gsk.com/dataset/cdisc/sdtm-ig/v3-4/AG/AGENRF> a sdtmig:Variable ;
    rdfs:label "End Relative to Reference Period" ;
    sdtmig:codeList <http://id.gsk.com/dataset/cdisc/ct/v48/sdtm/C66728> ;
    sdtmig:core "Perm" ;
    sdtmig:ordinal "37" ;
    sdtmig:role "Timing" ;
    sdtmig:simpleDatatype "Char" ;
    dc:description "Describes the end of the agent relative to the sponsor-defined reference period. The sponsor-defined reference period is a continuous period of time defined by a discrete starting point and a discrete ending point (represented by RFSTDTC and RFENDTC in Demographics). If information such as \"PRIOR\", \"ONGOING\", or \"CONTINUING\" was collected, this information may be translated into AGENRF. \\n Not all values of the codelist are allowable for this variable. See Section 4.4.7, Use of Relative Timing Variables." ;
    dc:identifier "AGENRF" .

<http://id.gsk.com/dataset/cdisc/sdtm-ig/v3-4/AG/AGENRTPT> a sdtmig:Variable ;
    rdfs:label "End Relative to Reference Time Point" ;
    sdtmig:codeList <http://id.gsk.com/dataset/cdisc/ct/v48/sdtm/C66728> ;
    sdtmig:core "Perm" ;
    sdtmig:ordinal "40" ;
    sdtmig:role "Timing" ;
    sdtmig:simpleDatatype "Char" ;
    dc:description "Identifies the end of the agent as being before or after the reference time point defined by variable AGENTPT. Identifies the end of the agent as being before or after the sponsor-defined reference time point defined by variable AGENTPT. \\n Not all values of the codelist are allowable for this variable. See Section 4.4.7, Use of Relative Timing Variables." ;
    dc:identifier "AGENRTPT" .

<http://id.gsk.com/dataset/cdisc/sdtm-ig/v3-4/AG/AGENTPT> a sdtmig:Variable ;
    rdfs:label "End Reference Time Point" ;
    sdtmig:core "Perm" ;
    sdtmig:ordinal "41" ;
    sdtmig:role "Timing" ;
    sdtmig:simpleDatatype "Char" ;
    dc:description "Description or date/time in ISO 8601 character format of the reference point referred to by AGENRTPT. Examples: \"2003-12-25\", \"VISIT 2\"." ;
    dc:identifier "AGENTPT" .

<http://id.gsk.com/dataset/cdisc/sdtm-ig/v3-4/AG/AGGRPID> a sdtmig:Variable ;
    rdfs:label "Group ID" ;
    sdtmig:core "Perm" ;
    sdtmig:ordinal "5" ;
    sdtmig:role "Identifier" ;
    sdtmig:simpleDatatype "Char" ;
    dc:description "Used to tie together a block of related records in a single domain for a subject." ;
    dc:identifier "AGGRPID" .

<http://id.gsk.com/dataset/cdisc/sdtm-ig/v3-4/AG/AGLNKGRP> a sdtmig:Variable ;
    rdfs:label "Link Group ID" ;
    sdtmig:core "Perm" ;
    sdtmig:ordinal "8" ;
    sdtmig:role "Identifier" ;
    sdtmig:simpleDatatype "Char" ;
    dc:description "Identifier used to link related records across domains.This will usually be a many-to-one relationship." ;
    dc:identifier "AGLNKGRP" .

<http://id.gsk.com/dataset/cdisc/sdtm-ig/v3-4/AG/AGLNKID> a sdtmig:Variable ;
    rdfs:label "Link ID" ;
    sdtmig:core "Perm" ;
    sdtmig:ordinal "7" ;
    sdtmig:role "Identifier" ;
    sdtmig:simpleDatatype "Char" ;
    dc:description "Identifier used to link related records across domains.This may be a one-to-one or a one-to-many relationship." ;
    dc:identifier "AGLNKID" .

<http://id.gsk.com/dataset/cdisc/sdtm-ig/v3-4/AG/AGMODIFY> a sdtmig:Variable ;
    rdfs:label "Modified Reported Name" ;
    sdtmig:core "Perm" ;
    sdtmig:ordinal "10" ;
    sdtmig:role "Synonym Qualifier" ;
    sdtmig:simpleDatatype "Char" ;
    dc:description "If AGTRT is modified to facilitate coding, then AGMODIFY will contain the modified text." ;
    dc:identifier "AGMODIFY" .

<http://id.gsk.com/dataset/cdisc/sdtm-ig/v3-4/AG/AGOCCUR> a sdtmig:Variable ;
    rdfs:label "AG Occurrence" ;
    sdtmig:codeList <http://id.gsk.com/dataset/cdisc/ct/v48/sdtm/C66742> ;
    sdtmig:core "Perm" ;
    sdtmig:ordinal "15" ;
    sdtmig:role "Record Qualifier" ;
    sdtmig:simpleDatatype "Char" ;
    dc:description "When the use of specific agent is solicited, AGOCCUR is used to indicate whether (\"Y\"/\"N\") use of the agent occurred. Values are null for agents not specifically solicited." ;
    dc:identifier "AGOCCUR" .

<http://id.gsk.com/dataset/cdisc/sdtm-ig/v3-4/AG/AGPRESP> a sdtmig:Variable ;
    rdfs:label "AG Pre-Specified" ;
    sdtmig:codeList <http://id.gsk.com/dataset/cdisc/ct/v48/sdtm/C66742> ;
    sdtmig:core "Perm" ;
    sdtmig:ordinal "14" ;
    sdtmig:role "Variable Qualifier" ;
    sdtmig:simpleDatatype "Char" ;
    dc:description "Used to indicate whether (\"Y\"/null) information about the use of a specific agent was solicited on the CRF." ;
    dc:identifier "AGPRESP" .

<http://id.gsk.com/dataset/cdisc/sdtm-ig/v3-4/AG/AGREASND> a sdtmig:Variable ;
    rdfs:label "Reason Procedure Agent Not Collected" ;
    sdtmig:core "Perm" ;
    sdtmig:ordinal "17" ;
    sdtmig:role "Record Qualifier" ;
    sdtmig:simpleDatatype "Char" ;
    dc:description "Describes the reason a response to a question about the occurrence of a procedure agent was not collected. Used in conjunction with AGSTAT when value is \"NOT DONE\"." ;
    dc:identifier "AGREASND" .

<http://id.gsk.com/dataset/cdisc/sdtm-ig/v3-4/AG/AGROUTE> a sdtmig:Variable ;
    rdfs:label "Route of Administration" ;
    sdtmig:codeList <http://id.gsk.com/dataset/cdisc/ct/v48/sdtm/C66729> ;
    sdtmig:core "Perm" ;
    sdtmig:ordinal "25" ;
    sdtmig:role "Variable Qualifier" ;
    sdtmig:simpleDatatype "Char" ;
    dc:description "Route of administration for AGTRT. Example: \"ORAL\"." ;
    dc:identifier "AGROUTE" .

<http://id.gsk.com/dataset/cdisc/sdtm-ig/v3-4/AG/AGSCAT> a sdtmig:Variable ;
    rdfs:label "Subcategory for Agent" ;
    sdtmig:core "Perm" ;
    sdtmig:ordinal "13" ;
    sdtmig:role "Grouping Qualifier" ;
    sdtmig:simpleDatatype "Char" ;
    dc:description "Further categorization of agent." ;
    dc:identifier "AGSCAT" .

<http://id.gsk.com/dataset/cdisc/sdtm-ig/v3-4/AG/AGSEQ> a sdtmig:Variable ;
    rdfs:label "Sequence Number" ;
    sdtmig:core "Req" ;
    sdtmig:ordinal "4" ;
    sdtmig:role "Identifier" ;
    sdtmig:simpleDatatype "Num" ;
    dc:description "Sequence number given to ensure uniqueness of subject records within a domain. May be any valid number." ;
    dc:identifier "AGSEQ" .

<http://id.gsk.com/dataset/cdisc/sdtm-ig/v3-4/AG/AGSPID> a sdtmig:Variable ;
    rdfs:label "Sponsor-Defined Identifier" ;
    sdtmig:core "Perm" ;
    sdtmig:ordinal "6" ;
    sdtmig:role "Identifier" ;
    sdtmig:simpleDatatype "Char" ;
    dc:description "Sponsor-defined reference number. May be preprinted on the CRF as an explicit line identifier or defined in the sponsor\'s operational database. Example: Line number from the procedure or test page." ;
    dc:identifier "AGSPID" .

<http://id.gsk.com/dataset/cdisc/sdtm-ig/v3-4/AG/AGSTAT> a sdtmig:Variable ;
    rdfs:label "Completion Status" ;
    sdtmig:codeList <http://id.gsk.com/dataset/cdisc/ct/v48/sdtm/C66789> ;
    sdtmig:core "Perm" ;
    sdtmig:ordinal "16" ;
    sdtmig:role "Record Qualifier" ;
    sdtmig:simpleDatatype "Char" ;
    dc:description "Used to indicate that a question about a prespecified agent was not answered. Should be null or have a value of \"NOT DONE\"." ;
    dc:identifier "AGSTAT" .

<http://id.gsk.com/dataset/cdisc/sdtm-ig/v3-4/AG/AGSTDTC> a sdtmig:Variable ;
    rdfs:label "Start Date/Time of Agent" ;
    sdtmig:core "Perm" ;
    sdtmig:ordinal "31" ;
    sdtmig:role "Timing" ;
    sdtmig:simpleDatatype "Char" ;
    sdtmig:valueDomain "ISO 8601 datetime or interval" ;
    dc:description "The date/time when administration of the treatment indicated by AGTRT and the dosing variables began." ;
    dc:identifier "AGSTDTC" .

<http://id.gsk.com/dataset/cdisc/sdtm-ig/v3-4/AG/AGSTDY> a sdtmig:Variable ;
    rdfs:label "Study Day of Start of Agent" ;
    sdtmig:core "Perm" ;
    sdtmig:ordinal "33" ;
    sdtmig:role "Timing" ;
    sdtmig:simpleDatatype "Num" ;
    dc:description "Study day of start of agent relative to the sponsor-defined RFSTDTC." ;
    dc:identifier "AGSTDY" .

<http://id.gsk.com/dataset/cdisc/sdtm-ig/v3-4/AG/AGSTRF> a sdtmig:Variable ;
    rdfs:label "Start Relative to Reference Period" ;
    sdtmig:codeList <http://id.gsk.com/dataset/cdisc/ct/v48/sdtm/C66728> ;
    sdtmig:core "Perm" ;
    sdtmig:ordinal "36" ;
    sdtmig:role "Timing" ;
    sdtmig:simpleDatatype "Char" ;
    dc:description "Describes the start of the agent relative to sponsor-defined reference period. The sponsor-defined reference period is a continuous period of time defined by a discrete starting point and a discrete ending point (represented by RFSTDTC and RFENDTC in Demographics). If information such as \"PRIOR\", \"ONGOING\", or \"CONTINUING\" was collected, this information may be translated into AGSTRF. \\n Not all values of the codelist are allowable for this variable. See Section 4.4.7, Use of Relative Timing Variables." ;
    dc:identifier "AGSTRF" .

<http://id.gsk.com/dataset/cdisc/sdtm-ig/v3-4/AG/AGSTRTPT> a sdtmig:Variable ;
    rdfs:label "Start Relative to Reference Time Point" ;
    sdtmig:codeList <http://id.gsk.com/dataset/cdisc/ct/v48/sdtm/C66728> ;
    sdtmig:core "Perm" ;
    sdtmig:ordinal "38" ;
    sdtmig:role "Timing" ;
    sdtmig:simpleDatatype "Char" ;
    dc:description "Identifies the start of the agent as being before or after the sponsor-defined reference time point defined by variable AGSTTPT. \\n Not all values of the codelist are allowable for this variable. See Section 4.4.7, Use of Relative Timing Variables." ;
    dc:identifier "AGSTRTPT" .

<http://id.gsk.com/dataset/cdisc/sdtm-ig/v3-4/AG/AGSTTPT> a sdtmig:Variable ;
    rdfs:label "Start Reference Time Point" ;
    sdtmig:core "Perm" ;
    sdtmig:ordinal "39" ;
    sdtmig:role "Timing" ;
    sdtmig:simpleDatatype "Char" ;
    dc:description "Description or date/time in ISO 8601 character format of the reference point referred to by AGSTRTPT. Examples: \"2003-12-15\", \"VISIT 1\"." ;
    dc:identifier "AGSTTPT" .

<http://id.gsk.com/dataset/cdisc/sdtm-ig/v3-4/AG/AGTRT> a sdtmig:Variable ;
    rdfs:label "Reported Agent Name" ;
    sdtmig:core "Req" ;
    sdtmig:ordinal "9" ;
    sdtmig:role "Topic" ;
    sdtmig:simpleDatatype "Char" ;
    dc:description "Verbatim medication name that is either preprinted or collected on a CRF." ;
    dc:identifier "AGTRT" .

<http://id.gsk.com/dataset/cdisc/sdtm-ig/v3-4/AG/DOMAIN> a sdtmig:Variable ;
    rdfs:label "Domain Abbreviation" ;
    sdtmig:core "Req" ;
    sdtmig:ordinal "2" ;
    sdtmig:role "Identifier" ;
    sdtmig:simpleDatatype "Char" ;
    dc:description "Two-character abbreviation for the domain." ;
    dc:identifier "DOMAIN" .

<http://id.gsk.com/dataset/cdisc/sdtm-ig/v3-4/AG/EPOCH> a sdtmig:Variable ;
    rdfs:label "Epoch" ;
    sdtmig:codeList <http://id.gsk.com/dataset/cdisc/ct/v48/sdtm/C99079> ;
    sdtmig:core "Perm" ;
    sdtmig:ordinal "30" ;
    sdtmig:role "Timing" ;
    sdtmig:simpleDatatype "Char" ;
    dc:description "Epoch associated with the start date/time of the agent administration started." ;
    dc:identifier "EPOCH" .

<http://id.gsk.com/dataset/cdisc/sdtm-ig/v3-4/AG/STUDYID> a sdtmig:Variable ;
    rdfs:label "Study Identifier" ;
    sdtmig:core "Req" ;
    sdtmig:ordinal "1" ;
    sdtmig:role "Identifier" ;
    sdtmig:simpleDatatype "Char" ;
    dc:description "Unique identifier for a study." ;
    dc:identifier "STUDYID" .

<http://id.gsk.com/dataset/cdisc/sdtm-ig/v3-4/AG/TAETORD> a sdtmig:Variable ;
    rdfs:label "Planned Order of Element within Arm" ;
    sdtmig:core "Perm" ;
    sdtmig:ordinal "29" ;
    sdtmig:role "Timing" ;
    sdtmig:simpleDatatype "Num" ;
    dc:description "Number that gives the planned order of the element within the arm for the element in which the agent administration started." ;
    dc:identifier "TAETORD" .

<http://id.gsk.com/dataset/cdisc/sdtm-ig/v3-4/AG/USUBJID> a sdtmig:Variable ;
    rdfs:label "Unique Subject Identifier" ;
    sdtmig:core "Req" ;
    sdtmig:ordinal "3" ;
    sdtmig:role "Identifier" ;
    sdtmig:simpleDatatype "Char" ;
    dc:description "Identifier used to uniquely identify a subject across all studies for all applications or submissions involving the product." ;
    dc:identifier "USUBJID" .

<http://id.gsk.com/dataset/cdisc/sdtm-ig/v3-4/AG/VISIT> a sdtmig:Variable ;
    rdfs:label "Visit Name" ;
    sdtmig:core "Perm" ;
    sdtmig:ordinal "27" ;
    sdtmig:role "Timing" ;
    sdtmig:simpleDatatype "Char" ;
    dc:description "1. Protocol-defined description of clinical encounter. \\n 2. May be used in addition to VISITNUM and/or VISITDY." ;
    dc:identifier "VISIT" .

<http://id.gsk.com/dataset/cdisc/sdtm-ig/v3-4/AG/VISITDY> a sdtmig:Variable ;
    rdfs:label "Planned Study Day of Visit" ;
    sdtmig:core "Perm" ;
    sdtmig:ordinal "28" ;
    sdtmig:role "Timing" ;
    sdtmig:simpleDatatype "Num" ;
    dc:description "Planned study day of the visit based upon RFSTDTC in Demographics." ;
    dc:identifier "VISITDY" .

<http://id.gsk.com/dataset/cdisc/sdtm-ig/v3-4/AG/VISITNUM> a sdtmig:Variable ;
    rdfs:label "Visit Number" ;
    sdtmig:core "Exp" ;
    sdtmig:ordinal "26" ;
    sdtmig:role "Timing" ;
    sdtmig:simpleDatatype "Num" ;
    dc:description "1. Clinical encounter number. \\n 2. Numeric version of VISIT, used for sorting." ;
    dc:identifier "VISITNUM" .

<http://id.gsk.com/dataset/cdisc/sdtm-ig/v3-4/BE> a sdtmig:Domain ;
    rdfs:label "Biospecimen Events" ;
    sdtmig:hasVariable <http://id.gsk.com/dataset/cdisc/sdtm-ig/v3-4/BE/BECAT>,
        <http://id.gsk.com/dataset/cdisc/sdtm-ig/v3-4/BE/BEDECOD>,
        <http://id.gsk.com/dataset/cdisc/sdtm-ig/v3-4/BE/BEDTC>,
        <http://id.gsk.com/dataset/cdisc/sdtm-ig/v3-4/BE/BEDUR>,
        <http://id.gsk.com/dataset/cdisc/sdtm-ig/v3-4/BE/BEENDTC>,
        <http://id.gsk.com/dataset/cdisc/sdtm-ig/v3-4/BE/BEENDY>,
        <http://id.gsk.com/dataset/cdisc/sdtm-ig/v3-4/BE/BEGRPID>,
        <http://id.gsk.com/dataset/cdisc/sdtm-ig/v3-4/BE/BELOC>,
        <http://id.gsk.com/dataset/cdisc/sdtm-ig/v3-4/BE/BEMODIFY>,
        <http://id.gsk.com/dataset/cdisc/sdtm-ig/v3-4/BE/BEPARTY>,
        <http://id.gsk.com/dataset/cdisc/sdtm-ig/v3-4/BE/BEPRTYID>,
        <http://id.gsk.com/dataset/cdisc/sdtm-ig/v3-4/BE/BEREFID>,
        <http://id.gsk.com/dataset/cdisc/sdtm-ig/v3-4/BE/BESCAT>,
        <http://id.gsk.com/dataset/cdisc/sdtm-ig/v3-4/BE/BESEQ>,
        <http://id.gsk.com/dataset/cdisc/sdtm-ig/v3-4/BE/BESPID>,
        <http://id.gsk.com/dataset/cdisc/sdtm-ig/v3-4/BE/BESTDTC>,
        <http://id.gsk.com/dataset/cdisc/sdtm-ig/v3-4/BE/BESTDY>,
        <http://id.gsk.com/dataset/cdisc/sdtm-ig/v3-4/BE/BETERM>,
        <http://id.gsk.com/dataset/cdisc/sdtm-ig/v3-4/BE/DOMAIN>,
        <http://id.gsk.com/dataset/cdisc/sdtm-ig/v3-4/BE/SPDEVID>,
        <http://id.gsk.com/dataset/cdisc/sdtm-ig/v3-4/BE/STUDYID>,
        <http://id.gsk.com/dataset/cdisc/sdtm-ig/v3-4/BE/USUBJID>,
        <http://id.gsk.com/dataset/cdisc/sdtm-ig/v3-4/BE/VISIT>,
        <http://id.gsk.com/dataset/cdisc/sdtm-ig/v3-4/BE/VISITDY>,
        <http://id.gsk.com/dataset/cdisc/sdtm-ig/v3-4/BE/VISITNUM> ;
    sdtmig:ordinal "3" ;
    sdtmig:structure "One record per instance per biospecimen event per biospecimen identifier per subject" ;
    dc:description "Biospecimen Events" ;
    dc:identifier "BE" .

<http://id.gsk.com/dataset/cdisc/sdtm-ig/v3-4/BE/BECAT> a sdtmig:Variable ;
    rdfs:label "Category for Biospecimen Event" ;
    sdtmig:core "Perm" ;
    sdtmig:ordinal "12" ;
    sdtmig:role "Grouping Qualifier" ;
    sdtmig:simpleDatatype "Char" ;
    dc:description "Used to define a category of topic-variable values. Example: COLLECTION, PREPARATION, TRANSPORT." ;
    dc:identifier "BECAT" .

<http://id.gsk.com/dataset/cdisc/sdtm-ig/v3-4/BE/BEDECOD> a sdtmig:Variable ;
    rdfs:label "Dictionary-Derived Term" ;
    sdtmig:codeList <http://id.gsk.com/dataset/cdisc/ct/v48/sdtm/C124297> ;
    sdtmig:core "Perm" ;
    sdtmig:ordinal "11" ;
    sdtmig:role "Synonym Qualifier" ;
    sdtmig:simpleDatatype "Char" ;
    dc:description "Dictionary-derived text description of BETERM or BEMODIFY, if applicable." ;
    dc:identifier "BEDECOD" .

<http://id.gsk.com/dataset/cdisc/sdtm-ig/v3-4/BE/BEDTC> a sdtmig:Variable ;
    rdfs:label "Date/Time of Specimen Collection" ;
    sdtmig:core "Exp" ;
    sdtmig:ordinal "20" ;
    sdtmig:role "Timing" ;
    sdtmig:simpleDatatype "Char" ;
    sdtmig:valueDomain "ISO 8601 datetime or interval" ;
    dc:description "Date and time of specimen collection." ;
    dc:identifier "BEDTC" .

<http://id.gsk.com/dataset/cdisc/sdtm-ig/v3-4/BE/BEDUR> a sdtmig:Variable ;
    rdfs:label "Duration of Biospecimen Event" ;
    sdtmig:core "Perm" ;
    sdtmig:ordinal "25" ;
    sdtmig:role "Timing" ;
    sdtmig:simpleDatatype "Char" ;
    sdtmig:valueDomain "ISO 8601 duration" ;
    dc:description "Collected duration and unit of a biospecimen event. Used only if collected on the CRF and not derived from start and end date/times. Example: P1DT2H (for 1 day, 2 hours)." ;
    dc:identifier "BEDUR" .

<http://id.gsk.com/dataset/cdisc/sdtm-ig/v3-4/BE/BEENDTC> a sdtmig:Variable ;
    rdfs:label "End Date/Time of Biospecimen Event" ;
    sdtmig:core "Exp" ;
    sdtmig:ordinal "22" ;
    sdtmig:role "Timing" ;
    sdtmig:simpleDatatype "Char" ;
    sdtmig:valueDomain "ISO 8601 datetime or interval" ;
    dc:description "End date/time of the event." ;
    dc:identifier "BEENDTC" .

<http://id.gsk.com/dataset/cdisc/sdtm-ig/v3-4/BE/BEENDY> a sdtmig:Variable ;
    rdfs:label "Study Day of End of Biospecimen Event" ;
    sdtmig:core "Perm" ;
    sdtmig:ordinal "24" ;
    sdtmig:role "Timing" ;
    sdtmig:simpleDatatype "Num" ;
    dc:description "Actual study day of end of observation expressed in integer days relative to the sponsor-defined RFSTDTC in Demographics." ;
    dc:identifier "BEENDY" .

<http://id.gsk.com/dataset/cdisc/sdtm-ig/v3-4/BE/BEGRPID> a sdtmig:Variable ;
    rdfs:label "Group ID" ;
    sdtmig:core "Perm" ;
    sdtmig:ordinal "6" ;
    sdtmig:role "Identifier" ;
    sdtmig:simpleDatatype "Char" ;
    dc:description "Optional group identifier, used to link together a block of related records within a subject in a domain." ;
    dc:identifier "BEGRPID" .

<http://id.gsk.com/dataset/cdisc/sdtm-ig/v3-4/BE/BELOC> a sdtmig:Variable ;
    rdfs:label "Anatomical Location of Event" ;
    sdtmig:codeList <http://id.gsk.com/dataset/cdisc/ct/v48/sdtm/C74456> ;
    sdtmig:core "Perm" ;
    sdtmig:ordinal "14" ;
    sdtmig:role "Record Qualifier" ;
    sdtmig:simpleDatatype "Char" ;
    dc:description "Describes the anatomical location relevant for the event (e.g. BRAIN, LUNG)." ;
    dc:identifier "BELOC" .

<http://id.gsk.com/dataset/cdisc/sdtm-ig/v3-4/BE/BEMODIFY> a sdtmig:Variable ;
    rdfs:label "Modified Reported Term" ;
    sdtmig:core "Perm" ;
    sdtmig:ordinal "10" ;
    sdtmig:role "Synonym Qualifier" ;
    sdtmig:simpleDatatype "Char" ;
    dc:description "If the value for BETERM is modified for coding purposes, then the modified text is placed here." ;
    dc:identifier "BEMODIFY" .

<http://id.gsk.com/dataset/cdisc/sdtm-ig/v3-4/BE/BEPARTY> a sdtmig:Variable ;
    rdfs:label "Accountable Party" ;
    sdtmig:core "Perm" ;
    sdtmig:ordinal "15" ;
    sdtmig:role "Record Qualifier" ;
    sdtmig:simpleDatatype "Char" ;
    dc:description "Party accountable for the transferable object (e.g. specimen) as a result of the activity performed in the associated BETERM variable. The party could be an individual (e.g., subject), an organization (e.g., sponsor), or a location that is a proxy for an individual or organization (e.g., site). It is usually a somewhat general term that is further identified in the BEPRTYID variable." ;
    dc:identifier "BEPARTY" .

<http://id.gsk.com/dataset/cdisc/sdtm-ig/v3-4/BE/BEPRTYID> a sdtmig:Variable ;
    rdfs:label "Identification of Accountable Party" ;
    sdtmig:core "Perm" ;
    sdtmig:ordinal "16" ;
    sdtmig:role "Record Qualifier" ;
    sdtmig:simpleDatatype "Char" ;
    dc:description "Identification of the specific party accountable for the transferable object (e.g. Specimen) after the action in BETERM is taken. Used in conjunction with BEPARTY." ;
    dc:identifier "BEPRTYID" .

<http://id.gsk.com/dataset/cdisc/sdtm-ig/v3-4/BE/BEREFID> a sdtmig:Variable ;
    rdfs:label "Reference ID" ;
    sdtmig:core "Exp" ;
    sdtmig:ordinal "7" ;
    sdtmig:role "Identifier" ;
    sdtmig:simpleDatatype "Char" ;
    dc:description "Internal or external identifier for the specimen affected or created by the event." ;
    dc:identifier "BEREFID" .

<http://id.gsk.com/dataset/cdisc/sdtm-ig/v3-4/BE/BESCAT> a sdtmig:Variable ;
    rdfs:label "Subcategory for Biospecimen Event" ;
    sdtmig:core "Perm" ;
    sdtmig:ordinal "13" ;
    sdtmig:role "Grouping Qualifier" ;
    sdtmig:simpleDatatype "Char" ;
    dc:description "A further categorization of BECAT values." ;
    dc:identifier "BESCAT" .

<http://id.gsk.com/dataset/cdisc/sdtm-ig/v3-4/BE/BESEQ> a sdtmig:Variable ;
    rdfs:label "Sequence Number" ;
    sdtmig:core "Req" ;
    sdtmig:ordinal "5" ;
    sdtmig:role "Identifier" ;
    sdtmig:simpleDatatype "Num" ;
    dc:description "Sequence number to ensure uniqueness of records within a dataset for a subject. May be any valid number (including decimals) and does not have to start at 1." ;
    dc:identifier "BESEQ" .

<http://id.gsk.com/dataset/cdisc/sdtm-ig/v3-4/BE/BESPID> a sdtmig:Variable ;
    rdfs:label "Sponsor-Defined Identifier" ;
    sdtmig:core "Perm" ;
    sdtmig:ordinal "8" ;
    sdtmig:role "Identifier" ;
    sdtmig:simpleDatatype "Char" ;
    dc:description "Optional sponsor-defined reference number. Example: Line number on a CRF page." ;
    dc:identifier "BESPID" .

<http://id.gsk.com/dataset/cdisc/sdtm-ig/v3-4/BE/BESTDTC> a sdtmig:Variable ;
    rdfs:label "Start Date/Time of Biospecimen Event" ;
    sdtmig:core "Exp" ;
    sdtmig:ordinal "21" ;
    sdtmig:role "Timing" ;
    sdtmig:simpleDatatype "Char" ;
    sdtmig:valueDomain "ISO 8601 datetime or interval" ;
    dc:description "Start date/time of the event." ;
    dc:identifier "BESTDTC" .

<http://id.gsk.com/dataset/cdisc/sdtm-ig/v3-4/BE/BESTDY> a sdtmig:Variable ;
    rdfs:label "Study Day of Start of Biospecimen Event" ;
    sdtmig:core "Perm" ;
    sdtmig:ordinal "23" ;
    sdtmig:role "Timing" ;
    sdtmig:simpleDatatype "Num" ;
    dc:description "Actual study day of start of observation expressed in integer days relative to the sponsor-defined RFSTDTC in Demographics." ;
    dc:identifier "BESTDY" .

<http://id.gsk.com/dataset/cdisc/sdtm-ig/v3-4/BE/BETERM> a sdtmig:Variable ;
    rdfs:label "Reported Term for the Biospecimen Event" ;
    sdtmig:core "Req" ;
    sdtmig:ordinal "9" ;
    sdtmig:role "Topic" ;
    sdtmig:simpleDatatype "Char" ;
    dc:description "Topic variable for an event observation, which is the verbatim or pre-specified name of the event." ;
    dc:identifier "BETERM" .

<http://id.gsk.com/dataset/cdisc/sdtm-ig/v3-4/BE/DOMAIN> a sdtmig:Variable ;
    rdfs:label "Domain Abbreviation" ;
    sdtmig:core "Req" ;
    sdtmig:ordinal "2" ;
    sdtmig:role "Identifier" ;
    sdtmig:simpleDatatype "Char" ;
    dc:description "Two-character abbreviation for the domain." ;
    dc:identifier "DOMAIN" .

<http://id.gsk.com/dataset/cdisc/sdtm-ig/v3-4/BE/SPDEVID> a sdtmig:Variable ;
    rdfs:label "Sponsor Device Identifier" ;
    sdtmig:core "Perm" ;
    sdtmig:ordinal "4" ;
    sdtmig:role "Identifier" ;
    sdtmig:simpleDatatype "Char" ;
    dc:description "Sponsor-defined identifier for a device." ;
    dc:identifier "SPDEVID" .

<http://id.gsk.com/dataset/cdisc/sdtm-ig/v3-4/BE/STUDYID> a sdtmig:Variable ;
    rdfs:label "Study Identifier" ;
    sdtmig:core "Req" ;
    sdtmig:ordinal "1" ;
    sdtmig:role "Identifier" ;
    sdtmig:simpleDatatype "Char" ;
    dc:description "Unique identifier for a study." ;
    dc:identifier "STUDYID" .

<http://id.gsk.com/dataset/cdisc/sdtm-ig/v3-4/BE/USUBJID> a sdtmig:Variable ;
    rdfs:label "Unique Subject Identifier" ;
    sdtmig:core "Req" ;
    sdtmig:ordinal "3" ;
    sdtmig:role "Identifier" ;
    sdtmig:simpleDatatype "Char" ;
    dc:description "Identifier used to uniquely identify a subject across all studies for all applications or submissions involving the product." ;
    dc:identifier "USUBJID" .

<http://id.gsk.com/dataset/cdisc/sdtm-ig/v3-4/BE/VISIT> a sdtmig:Variable ;
    rdfs:label "Visit Name" ;
    sdtmig:core "Perm" ;
    sdtmig:ordinal "18" ;
    sdtmig:role "Timing" ;
    sdtmig:simpleDatatype "Char" ;
    dc:description "Protocol-defined description of clinical encounter." ;
    dc:identifier "VISIT" .

<http://id.gsk.com/dataset/cdisc/sdtm-ig/v3-4/BE/VISITDY> a sdtmig:Variable ;
    rdfs:label "Planned Study Day of Visit" ;
    sdtmig:core "Perm" ;
    sdtmig:ordinal "19" ;
    sdtmig:role "Timing" ;
    sdtmig:simpleDatatype "Num" ;
    dc:description "Planned study day of VISIT. Should be an integer." ;
    dc:identifier "VISITDY" .

<http://id.gsk.com/dataset/cdisc/sdtm-ig/v3-4/BE/VISITNUM> a sdtmig:Variable ;
    rdfs:label "Visit Number" ;
    sdtmig:core "Exp" ;
    sdtmig:ordinal "17" ;
    sdtmig:role "Timing" ;
    sdtmig:simpleDatatype "Num" ;
    dc:description "Clinical encounter number. Numeric version of VISIT, used for sorting." ;
    dc:identifier "VISITNUM" .

<http://id.gsk.com/dataset/cdisc/sdtm-ig/v3-4/BS> a sdtmig:Domain ;
    rdfs:label "Biospecimen Findings" ;
    sdtmig:hasVariable <http://id.gsk.com/dataset/cdisc/sdtm-ig/v3-4/BS/BSANTREG>,
        <http://id.gsk.com/dataset/cdisc/sdtm-ig/v3-4/BS/BSBLFL>,
        <http://id.gsk.com/dataset/cdisc/sdtm-ig/v3-4/BS/BSCAT>,
        <http://id.gsk.com/dataset/cdisc/sdtm-ig/v3-4/BS/BSDTC>,
        <http://id.gsk.com/dataset/cdisc/sdtm-ig/v3-4/BS/BSDY>,
        <http://id.gsk.com/dataset/cdisc/sdtm-ig/v3-4/BS/BSELTM>,
        <http://id.gsk.com/dataset/cdisc/sdtm-ig/v3-4/BS/BSGRPID>,
        <http://id.gsk.com/dataset/cdisc/sdtm-ig/v3-4/BS/BSMETHOD>,
        <http://id.gsk.com/dataset/cdisc/sdtm-ig/v3-4/BS/BSNAM>,
        <http://id.gsk.com/dataset/cdisc/sdtm-ig/v3-4/BS/BSORRES>,
        <http://id.gsk.com/dataset/cdisc/sdtm-ig/v3-4/BS/BSORRESU>,
        <http://id.gsk.com/dataset/cdisc/sdtm-ig/v3-4/BS/BSREASND>,
        <http://id.gsk.com/dataset/cdisc/sdtm-ig/v3-4/BS/BSREFID>,
        <http://id.gsk.com/dataset/cdisc/sdtm-ig/v3-4/BS/BSRFTDTC>,
        <http://id.gsk.com/dataset/cdisc/sdtm-ig/v3-4/BS/BSSCAT>,
        <http://id.gsk.com/dataset/cdisc/sdtm-ig/v3-4/BS/BSSEQ>,
        <http://id.gsk.com/dataset/cdisc/sdtm-ig/v3-4/BS/BSSPCCND>,
        <http://id.gsk.com/dataset/cdisc/sdtm-ig/v3-4/BS/BSSPEC>,
        <http://id.gsk.com/dataset/cdisc/sdtm-ig/v3-4/BS/BSSPID>,
        <http://id.gsk.com/dataset/cdisc/sdtm-ig/v3-4/BS/BSSTAT>,
        <http://id.gsk.com/dataset/cdisc/sdtm-ig/v3-4/BS/BSSTRESC>,
        <http://id.gsk.com/dataset/cdisc/sdtm-ig/v3-4/BS/BSSTRESN>,
        <http://id.gsk.com/dataset/cdisc/sdtm-ig/v3-4/BS/BSSTRESU>,
        <http://id.gsk.com/dataset/cdisc/sdtm-ig/v3-4/BS/BSTEST>,
        <http://id.gsk.com/dataset/cdisc/sdtm-ig/v3-4/BS/BSTESTCD>,
        <http://id.gsk.com/dataset/cdisc/sdtm-ig/v3-4/BS/BSTPT>,
        <http://id.gsk.com/dataset/cdisc/sdtm-ig/v3-4/BS/BSTPTNUM>,
        <http://id.gsk.com/dataset/cdisc/sdtm-ig/v3-4/BS/BSTPTREF>,
        <http://id.gsk.com/dataset/cdisc/sdtm-ig/v3-4/BS/DOMAIN>,
        <http://id.gsk.com/dataset/cdisc/sdtm-ig/v3-4/BS/SPDEVID>,
        <http://id.gsk.com/dataset/cdisc/sdtm-ig/v3-4/BS/STUDYID>,
        <http://id.gsk.com/dataset/cdisc/sdtm-ig/v3-4/BS/USUBJID>,
        <http://id.gsk.com/dataset/cdisc/sdtm-ig/v3-4/BS/VISIT>,
        <http://id.gsk.com/dataset/cdisc/sdtm-ig/v3-4/BS/VISITDY>,
        <http://id.gsk.com/dataset/cdisc/sdtm-ig/v3-4/BS/VISITNUM> ;
    sdtmig:ordinal "4" ;
    sdtmig:structure "One record per measurement per biospecimen identifier per subject" ;
    dc:description "Biospecimen Findings" ;
    dc:identifier "BS" .

<http://id.gsk.com/dataset/cdisc/sdtm-ig/v3-4/BS/BSANTREG> a sdtmig:Variable ;
    rdfs:label "Anatomical Region of Specimen" ;
    sdtmig:core "Perm" ;
    sdtmig:ordinal "22" ;
    sdtmig:role "Variable Qualifier" ;
    sdtmig:simpleDatatype "Char" ;
    dc:description "Defines the specific anatomical or biological region of a tissue, organ specimen or the region from which the specimen is obtained, as defined in the protocol, such as a section or part of what is described in the BSSPEC variable. Examples: CORTEX, MEDULLA, MUCOSA." ;
    dc:identifier "BSANTREG" .

<http://id.gsk.com/dataset/cdisc/sdtm-ig/v3-4/BS/BSBLFL> a sdtmig:Variable ;
    rdfs:label "Baseline Flag" ;
    sdtmig:codeList <http://id.gsk.com/dataset/cdisc/ct/v48/sdtm/C66742> ;
    sdtmig:core "Perm" ;
    sdtmig:ordinal "25" ;
    sdtmig:role "Record Qualifier" ;
    sdtmig:simpleDatatype "Char" ;
    dc:description "Indicator used to identify a baseline value." ;
    dc:identifier "BSBLFL" .

<http://id.gsk.com/dataset/cdisc/sdtm-ig/v3-4/BS/BSCAT> a sdtmig:Variable ;
    rdfs:label "Category for Biospecimen Test" ;
    sdtmig:core "Exp" ;
    sdtmig:ordinal "11" ;
    sdtmig:role "Grouping Qualifier" ;
    sdtmig:simpleDatatype "Char" ;
    dc:description "Used to define a category of topic-variable values. Example: MEASUREMENT, QUALITY." ;
    dc:identifier "BSCAT" .

<http://id.gsk.com/dataset/cdisc/sdtm-ig/v3-4/BS/BSDTC> a sdtmig:Variable ;
    rdfs:label "Date/Time of Specimen Collection" ;
    sdtmig:core "Exp" ;
    sdtmig:ordinal "29" ;
    sdtmig:role "Timing" ;
    sdtmig:simpleDatatype "Char" ;
    sdtmig:valueDomain "ISO 8601 datetime or interval" ;
    dc:description "Date and time of specimen collection." ;
    dc:identifier "BSDTC" .

<http://id.gsk.com/dataset/cdisc/sdtm-ig/v3-4/BS/BSDY> a sdtmig:Variable ;
    rdfs:label "Study Day of Specimen Collection" ;
    sdtmig:core "Perm" ;
    sdtmig:ordinal "30" ;
    sdtmig:role "Timing" ;
    sdtmig:simpleDatatype "Num" ;
    dc:description "Study day of specimen collection relative to the sponsor-defined RFSTDTC." ;
    dc:identifier "BSDY" .

<http://id.gsk.com/dataset/cdisc/sdtm-ig/v3-4/BS/BSELTM> a sdtmig:Variable ;
    rdfs:label "Planned Elapsed Time from Time Point Ref" ;
    sdtmig:core "Perm" ;
    sdtmig:ordinal "33" ;
    sdtmig:role "Timing" ;
    sdtmig:simpleDatatype "Char" ;
    sdtmig:valueDomain "ISO 8601 duration" ;
    dc:description "Elapsed time relative to a planned fixed reference (BSTPTREF). This variable is useful where there are repetitive measures. Not a clock time or a date time variable, but an interval, represented as ISO duration." ;
    dc:identifier "BSELTM" .

<http://id.gsk.com/dataset/cdisc/sdtm-ig/v3-4/BS/BSGRPID> a sdtmig:Variable ;
    rdfs:label "Group ID" ;
    sdtmig:core "Perm" ;
    sdtmig:ordinal "6" ;
    sdtmig:role "Identifier" ;
    sdtmig:simpleDatatype "Char" ;
    dc:description "Optional group identifier, used to link together a block of related records within a subject in a domain." ;
    dc:identifier "BSGRPID" .

<http://id.gsk.com/dataset/cdisc/sdtm-ig/v3-4/BS/BSMETHOD> a sdtmig:Variable ;
    rdfs:label "Method of Test or Examination" ;
    sdtmig:codeList <http://id.gsk.com/dataset/cdisc/ct/v48/sdtm/C85492> ;
    sdtmig:core "Perm" ;
    sdtmig:ordinal "24" ;
    sdtmig:role "Record Qualifier" ;
    sdtmig:simpleDatatype "Char" ;
    dc:description "Method of the test or examination. Examples: SPECTROPHOTOMETRY, ELECTROPHORESIS." ;
    dc:identifier "BSMETHOD" .

<http://id.gsk.com/dataset/cdisc/sdtm-ig/v3-4/BS/BSNAM> a sdtmig:Variable ;
    rdfs:label "Vendor Name" ;
    sdtmig:core "Perm" ;
    sdtmig:ordinal "20" ;
    sdtmig:role "Record Qualifier" ;
    sdtmig:simpleDatatype "Char" ;
    dc:description "Name or identifier of the vendor (e.g., laboratory) that provided the test results." ;
    dc:identifier "BSNAM" .

<http://id.gsk.com/dataset/cdisc/sdtm-ig/v3-4/BS/BSORRES> a sdtmig:Variable ;
    rdfs:label "Result or Finding in Original Units" ;
    sdtmig:core "Exp" ;
    sdtmig:ordinal "13" ;
    sdtmig:role "Result Qualifier" ;
    sdtmig:simpleDatatype "Char" ;
    dc:description "Result of the measurement or finding as originally received or collected." ;
    dc:identifier "BSORRES" .

<http://id.gsk.com/dataset/cdisc/sdtm-ig/v3-4/BS/BSORRESU> a sdtmig:Variable ;
    rdfs:label "Original Units" ;
    sdtmig:codeList <http://id.gsk.com/dataset/cdisc/ct/v48/sdtm/C71620> ;
    sdtmig:core "Exp" ;
    sdtmig:ordinal "14" ;
    sdtmig:role "Variable Qualifier" ;
    sdtmig:simpleDatatype "Char" ;
    dc:description "Unit for BSORRES. Examples: mg, mL." ;
    dc:identifier "BSORRESU" .

<http://id.gsk.com/dataset/cdisc/sdtm-ig/v3-4/BS/BSREASND> a sdtmig:Variable ;
    rdfs:label "Reason Test Not Done" ;
    sdtmig:core "Perm" ;
    sdtmig:ordinal "19" ;
    sdtmig:role "Record Qualifier" ;
    sdtmig:simpleDatatype "Char" ;
    dc:description "Reason not done. Used in conjunction with BSSTAT when value is NOT DONE." ;
    dc:identifier "BSREASND" .

<http://id.gsk.com/dataset/cdisc/sdtm-ig/v3-4/BS/BSREFID> a sdtmig:Variable ;
    rdfs:label "Reference ID" ;
    sdtmig:core "Exp" ;
    sdtmig:ordinal "7" ;
    sdtmig:role "Identifier" ;
    sdtmig:simpleDatatype "Char" ;
    dc:description "Internal or external identifier such as lab specimen ID." ;
    dc:identifier "BSREFID" .

<http://id.gsk.com/dataset/cdisc/sdtm-ig/v3-4/BS/BSRFTDTC> a sdtmig:Variable ;
    rdfs:label "Date/Time of Reference Time Point" ;
    sdtmig:core "Perm" ;
    sdtmig:ordinal "35" ;
    sdtmig:role "Timing" ;
    sdtmig:simpleDatatype "Char" ;
    sdtmig:valueDomain "ISO 8601 datetime or interval" ;
    dc:description "Date/time for a fixed reference time point defined by BSTPTREF." ;
    dc:identifier "BSRFTDTC" .

<http://id.gsk.com/dataset/cdisc/sdtm-ig/v3-4/BS/BSSCAT> a sdtmig:Variable ;
    rdfs:label "Subcategory for Biospecimen Test" ;
    sdtmig:core "Perm" ;
    sdtmig:ordinal "12" ;
    sdtmig:role "Grouping Qualifier" ;
    sdtmig:simpleDatatype "Char" ;
    dc:description "Used to define a further categorization of BSCAT values." ;
    dc:identifier "BSSCAT" .

<http://id.gsk.com/dataset/cdisc/sdtm-ig/v3-4/BS/BSSEQ> a sdtmig:Variable ;
    rdfs:label "Sequence Number" ;
    sdtmig:core "Req" ;
    sdtmig:ordinal "5" ;
    sdtmig:role "Identifier" ;
    sdtmig:simpleDatatype "Num" ;
    dc:description "Sequence number given to ensure uniqueness within a dataset for a subject. May be any valid number (including decimals) and does not have to start at 1." ;
    dc:identifier "BSSEQ" .

<http://id.gsk.com/dataset/cdisc/sdtm-ig/v3-4/BS/BSSPCCND> a sdtmig:Variable ;
    rdfs:label "Specimen Condition" ;
    sdtmig:codeList <http://id.gsk.com/dataset/cdisc/ct/v48/sdtm/C78733> ;
    sdtmig:core "Perm" ;
    sdtmig:ordinal "23" ;
    sdtmig:role "Record Qualifier" ;
    sdtmig:simpleDatatype "Char" ;
    dc:description "Defines the condition of the specimen. Examples: HEMOLYZED, ICTERIC, LIPEMIC." ;
    dc:identifier "BSSPCCND" .

<http://id.gsk.com/dataset/cdisc/sdtm-ig/v3-4/BS/BSSPEC> a sdtmig:Variable ;
    rdfs:label "Specimen Type" ;
    sdtmig:codeList <http://id.gsk.com/dataset/cdisc/ct/v48/sdtm/C78734> ;
    sdtmig:core "Perm" ;
    sdtmig:ordinal "21" ;
    sdtmig:role "Record Qualifier" ;
    sdtmig:simpleDatatype "Char" ;
    dc:description "Defines the type of specimen used for a measurement. Examples: SERUM, PLASMA, URINE, SOFT TISSUE." ;
    dc:identifier "BSSPEC" .

<http://id.gsk.com/dataset/cdisc/sdtm-ig/v3-4/BS/BSSPID> a sdtmig:Variable ;
    rdfs:label "Sponsor-Defined Identifier" ;
    sdtmig:core "Perm" ;
    sdtmig:ordinal "8" ;
    sdtmig:role "Identifier" ;
    sdtmig:simpleDatatype "Char" ;
    dc:description "Sponsor-defined identifier." ;
    dc:identifier "BSSPID" .

<http://id.gsk.com/dataset/cdisc/sdtm-ig/v3-4/BS/BSSTAT> a sdtmig:Variable ;
    rdfs:label "Completion Status" ;
    sdtmig:codeList <http://id.gsk.com/dataset/cdisc/ct/v48/sdtm/C66789> ;
    sdtmig:core "Perm" ;
    sdtmig:ordinal "18" ;
    sdtmig:role "Record Qualifier" ;
    sdtmig:simpleDatatype "Char" ;
    dc:description "Used to indicate that a test was not done, or was attempted but did not generate a result. Should be null or have a value of NOT DONE." ;
    dc:identifier "BSSTAT" .

<http://id.gsk.com/dataset/cdisc/sdtm-ig/v3-4/BS/BSSTRESC> a sdtmig:Variable ;
    rdfs:label "Character Result/Finding in Std Format" ;
    sdtmig:core "Exp" ;
    sdtmig:ordinal "15" ;
    sdtmig:role "Result Qualifier" ;
    sdtmig:simpleDatatype "Char" ;
    dc:description "Contains the result value for all findings, copied or derived from BSORRES in a standard format or standard units. BSSTRESC should store all results or findings in character format; if results are numeric, they should also be stored in numeric format in BSSTRESN." ;
    dc:identifier "BSSTRESC" .

<http://id.gsk.com/dataset/cdisc/sdtm-ig/v3-4/BS/BSSTRESN> a sdtmig:Variable ;
    rdfs:label "Numeric Result/Finding in Standard Units" ;
    sdtmig:core "Exp" ;
    sdtmig:ordinal "16" ;
    sdtmig:role "Result Qualifier" ;
    sdtmig:simpleDatatype "Num" ;
    dc:description "Used for continuous or numeric results or findings in standard format; copied in numeric format from BSSTRESC. BSSTRESN should store all numeric test results or findings." ;
    dc:identifier "BSSTRESN" .

<http://id.gsk.com/dataset/cdisc/sdtm-ig/v3-4/BS/BSSTRESU> a sdtmig:Variable ;
    rdfs:label "Standard Units" ;
    sdtmig:codeList <http://id.gsk.com/dataset/cdisc/ct/v48/sdtm/C71620> ;
    sdtmig:core "Exp" ;
    sdtmig:ordinal "17" ;
    sdtmig:role "Variable Qualifier" ;
    sdtmig:simpleDatatype "Char" ;
    dc:description "Standardized unit used for BSSTRESC and BSSTRESN." ;
    dc:identifier "BSSTRESU" .

<http://id.gsk.com/dataset/cdisc/sdtm-ig/v3-4/BS/BSTEST> a sdtmig:Variable ;
    rdfs:label "Biospecimen Test Name" ;
    sdtmig:codeList <http://id.gsk.com/dataset/cdisc/ct/v48/sdtm/C124299> ;
    sdtmig:core "Req" ;
    sdtmig:ordinal "10" ;
    sdtmig:role "Synonym Qualifier" ;
    sdtmig:simpleDatatype "Char" ;
    dc:description "Long name for BSTESTCD. Examples: Volume, RNA Integrity Number." ;
    dc:identifier "BSTEST" .

<http://id.gsk.com/dataset/cdisc/sdtm-ig/v3-4/BS/BSTESTCD> a sdtmig:Variable ;
    rdfs:label "Biospecimen Test Short Name" ;
    sdtmig:codeList <http://id.gsk.com/dataset/cdisc/ct/v48/sdtm/C124300> ;
    sdtmig:core "Req" ;
    sdtmig:ordinal "9" ;
    sdtmig:role "Topic" ;
    sdtmig:simpleDatatype "Char" ;
    dc:description "Short character value for BSTEST used as a column name when converting a dataset from a vertical format to a horizontal format. The short value can be up to 8 characters. Examples: VOLUME, RIN." ;
    dc:identifier "BSTESTCD" .

<http://id.gsk.com/dataset/cdisc/sdtm-ig/v3-4/BS/BSTPT> a sdtmig:Variable ;
    rdfs:label "Planned Time Point Name" ;
    sdtmig:core "Perm" ;
    sdtmig:ordinal "31" ;
    sdtmig:role "Timing" ;
    sdtmig:simpleDatatype "Char" ;
    dc:description "Text description of time when a measurement or observation should be taken as defined in the protocol. This may be represented as an elapsed time relative to a fixed reference point, such as time of last dose. See BSTPTNUM and BSTPTREF." ;
    dc:identifier "BSTPT" .

<http://id.gsk.com/dataset/cdisc/sdtm-ig/v3-4/BS/BSTPTNUM> a sdtmig:Variable ;
    rdfs:label "Planned Time Point Number" ;
    sdtmig:core "Perm" ;
    sdtmig:ordinal "32" ;
    sdtmig:role "Timing" ;
    sdtmig:simpleDatatype "Num" ;
    dc:description "Numerical version of BSTPT used in sorting." ;
    dc:identifier "BSTPTNUM" .

<http://id.gsk.com/dataset/cdisc/sdtm-ig/v3-4/BS/BSTPTREF> a sdtmig:Variable ;
    rdfs:label "Time Point Reference" ;
    sdtmig:core "Perm" ;
    sdtmig:ordinal "34" ;
    sdtmig:role "Timing" ;
    sdtmig:simpleDatatype "Char" ;
    dc:description "Name of the fixed reference point referred to by BSELTM, BSTPTNUM, and BSTPT. Examples: PREVIOUS DOSE, PREVIOUS MEAL." ;
    dc:identifier "BSTPTREF" .

<http://id.gsk.com/dataset/cdisc/sdtm-ig/v3-4/BS/DOMAIN> a sdtmig:Variable ;
    rdfs:label "Domain Abbreviation" ;
    sdtmig:core "Req" ;
    sdtmig:ordinal "2" ;
    sdtmig:role "Identifier" ;
    sdtmig:simpleDatatype "Char" ;
    dc:description "Two-character abbreviation for the domain." ;
    dc:identifier "DOMAIN" .

<http://id.gsk.com/dataset/cdisc/sdtm-ig/v3-4/BS/SPDEVID> a sdtmig:Variable ;
    rdfs:label "Sponsor Device Identifier" ;
    sdtmig:core "Perm" ;
    sdtmig:ordinal "4" ;
    sdtmig:role "Identifier" ;
    sdtmig:simpleDatatype "Char" ;
    dc:description "Sponsor-defined identifier for a device." ;
    dc:identifier "SPDEVID" .

<http://id.gsk.com/dataset/cdisc/sdtm-ig/v3-4/BS/STUDYID> a sdtmig:Variable ;
    rdfs:label "Study Identifier" ;
    sdtmig:core "Req" ;
    sdtmig:ordinal "1" ;
    sdtmig:role "Identifier" ;
    sdtmig:simpleDatatype "Char" ;
    dc:description "Unique identifier for a study." ;
    dc:identifier "STUDYID" .

<http://id.gsk.com/dataset/cdisc/sdtm-ig/v3-4/BS/USUBJID> a sdtmig:Variable ;
    rdfs:label "Unique Subject Identifier" ;
    sdtmig:core "Req" ;
    sdtmig:ordinal "3" ;
    sdtmig:role "Identifier" ;
    sdtmig:simpleDatatype "Char" ;
    dc:description "Identifier used to uniquely identify a subject across all studies for all applications or submissions involving the product." ;
    dc:identifier "USUBJID" .

<http://id.gsk.com/dataset/cdisc/sdtm-ig/v3-4/BS/VISIT> a sdtmig:Variable ;
    rdfs:label "Visit Name" ;
    sdtmig:core "Perm" ;
    sdtmig:ordinal "27" ;
    sdtmig:role "Timing" ;
    sdtmig:simpleDatatype "Char" ;
    dc:description "Protocol-defined description of clinical encounter." ;
    dc:identifier "VISIT" .

<http://id.gsk.com/dataset/cdisc/sdtm-ig/v3-4/BS/VISITDY> a sdtmig:Variable ;
    rdfs:label "Planned Study Day of Visit" ;
    sdtmig:core "Perm" ;
    sdtmig:ordinal "28" ;
    sdtmig:role "Timing" ;
    sdtmig:simpleDatatype "Num" ;
    dc:description "Planned study day of VISIT. Should be an integer." ;
    dc:identifier "VISITDY" .

<http://id.gsk.com/dataset/cdisc/sdtm-ig/v3-4/BS/VISITNUM> a sdtmig:Variable ;
    rdfs:label "Visit Number" ;
    sdtmig:core "Exp" ;
    sdtmig:ordinal "26" ;
    sdtmig:role "Timing" ;
    sdtmig:simpleDatatype "Num" ;
    dc:description "Clinical encounter number. Numeric version of VISIT, used for sorting." ;
    dc:identifier "VISITNUM" .

<http://id.gsk.com/dataset/cdisc/sdtm-ig/v3-4/CE> a sdtmig:Domain ;
    rdfs:label "Clinical Events" ;
    sdtmig:hasVariable <http://id.gsk.com/dataset/cdisc/sdtm-ig/v3-4/CE/CEBODSYS>,
        <http://id.gsk.com/dataset/cdisc/sdtm-ig/v3-4/CE/CECAT>,
        <http://id.gsk.com/dataset/cdisc/sdtm-ig/v3-4/CE/CEDECOD>,
        <http://id.gsk.com/dataset/cdisc/sdtm-ig/v3-4/CE/CEDTC>,
        <http://id.gsk.com/dataset/cdisc/sdtm-ig/v3-4/CE/CEDY>,
        <http://id.gsk.com/dataset/cdisc/sdtm-ig/v3-4/CE/CEENDTC>,
        <http://id.gsk.com/dataset/cdisc/sdtm-ig/v3-4/CE/CEENDY>,
        <http://id.gsk.com/dataset/cdisc/sdtm-ig/v3-4/CE/CEENRF>,
        <http://id.gsk.com/dataset/cdisc/sdtm-ig/v3-4/CE/CEENRTPT>,
        <http://id.gsk.com/dataset/cdisc/sdtm-ig/v3-4/CE/CEENTPT>,
        <http://id.gsk.com/dataset/cdisc/sdtm-ig/v3-4/CE/CEGRPID>,
        <http://id.gsk.com/dataset/cdisc/sdtm-ig/v3-4/CE/CEOCCUR>,
        <http://id.gsk.com/dataset/cdisc/sdtm-ig/v3-4/CE/CEPRESP>,
        <http://id.gsk.com/dataset/cdisc/sdtm-ig/v3-4/CE/CEREASND>,
        <http://id.gsk.com/dataset/cdisc/sdtm-ig/v3-4/CE/CEREFID>,
        <http://id.gsk.com/dataset/cdisc/sdtm-ig/v3-4/CE/CESCAT>,
        <http://id.gsk.com/dataset/cdisc/sdtm-ig/v3-4/CE/CESEQ>,
        <http://id.gsk.com/dataset/cdisc/sdtm-ig/v3-4/CE/CESEV>,
        <http://id.gsk.com/dataset/cdisc/sdtm-ig/v3-4/CE/CESPID>,
        <http://id.gsk.com/dataset/cdisc/sdtm-ig/v3-4/CE/CESTAT>,
        <http://id.gsk.com/dataset/cdisc/sdtm-ig/v3-4/CE/CESTDTC>,
        <http://id.gsk.com/dataset/cdisc/sdtm-ig/v3-4/CE/CESTDY>,
        <http://id.gsk.com/dataset/cdisc/sdtm-ig/v3-4/CE/CESTRF>,
        <http://id.gsk.com/dataset/cdisc/sdtm-ig/v3-4/CE/CESTRTPT>,
        <http://id.gsk.com/dataset/cdisc/sdtm-ig/v3-4/CE/CESTTPT>,
        <http://id.gsk.com/dataset/cdisc/sdtm-ig/v3-4/CE/CETERM>,
        <http://id.gsk.com/dataset/cdisc/sdtm-ig/v3-4/CE/CETOXGR>,
        <http://id.gsk.com/dataset/cdisc/sdtm-ig/v3-4/CE/DOMAIN>,
        <http://id.gsk.com/dataset/cdisc/sdtm-ig/v3-4/CE/EPOCH>,
        <http://id.gsk.com/dataset/cdisc/sdtm-ig/v3-4/CE/STUDYID>,
        <http://id.gsk.com/dataset/cdisc/sdtm-ig/v3-4/CE/TAETORD>,
        <http://id.gsk.com/dataset/cdisc/sdtm-ig/v3-4/CE/USUBJID> ;
    sdtmig:ordinal "5" ;
    sdtmig:structure "One record per event per subject" ;
    dc:description "Clinical Events" ;
    dc:identifier "CE" .

<http://id.gsk.com/dataset/cdisc/sdtm-ig/v3-4/CE/CEBODSYS> a sdtmig:Variable ;
    rdfs:label "Body System or Organ Class" ;
    sdtmig:core "Perm" ;
    sdtmig:ordinal "16" ;
    sdtmig:role "Record Qualifier" ;
    sdtmig:simpleDatatype "Char" ;
    dc:description "Dictionary-derived. Body system or organ class that is involved in an event or measurement from a standard hierarchy (e.g., MedDRA). When using a multi-axial dictionary such as MedDRA, this should contain the SOC used for the sponsor\'s analyses and summary tables, which may not necessarily be the primary SOC." ;
    dc:identifier "CEBODSYS" .

<http://id.gsk.com/dataset/cdisc/sdtm-ig/v3-4/CE/CECAT> a sdtmig:Variable ;
    rdfs:label "Category for the Clinical Event" ;
    sdtmig:core "Perm" ;
    sdtmig:ordinal "10" ;
    sdtmig:role "Grouping Qualifier" ;
    sdtmig:simpleDatatype "Char" ;
    dc:description "Used to define a category of related records." ;
    dc:identifier "CECAT" .

<http://id.gsk.com/dataset/cdisc/sdtm-ig/v3-4/CE/CEDECOD> a sdtmig:Variable ;
    rdfs:label "Dictionary-Derived Term" ;
    sdtmig:core "Perm" ;
    sdtmig:ordinal "9" ;
    sdtmig:role "Synonym Qualifier" ;
    sdtmig:simpleDatatype "Char" ;
    dc:description "Controlled terminology for the name of the clinical event. The sponsor is expected to provide the dictionary name and version used to map the terms utilizing the external codelist element in the Define-XML document." ;
    dc:identifier "CEDECOD" .

<http://id.gsk.com/dataset/cdisc/sdtm-ig/v3-4/CE/CEDTC> a sdtmig:Variable ;
    rdfs:label "Date/Time of Event Collection" ;
    sdtmig:core "Perm" ;
    sdtmig:ordinal "21" ;
    sdtmig:role "Timing" ;
    sdtmig:simpleDatatype "Char" ;
    sdtmig:valueDomain "ISO 8601 datetime or interval" ;
    dc:description "Collection date and time for the clinical event observation represented in ISO 8601 character format." ;
    dc:identifier "CEDTC" .

<http://id.gsk.com/dataset/cdisc/sdtm-ig/v3-4/CE/CEDY> a sdtmig:Variable ;
    rdfs:label "Study Day of Event Collection" ;
    sdtmig:core "Perm" ;
    sdtmig:ordinal "24" ;
    sdtmig:role "Timing" ;
    sdtmig:simpleDatatype "Num" ;
    dc:description "Study day of clinical event collection, measured as integer days. Algorithm for calculations must be relative to the sponsor-defined RFSTDTC variable in Demographics. This formula should be consistent across the submission." ;
    dc:identifier "CEDY" .

<http://id.gsk.com/dataset/cdisc/sdtm-ig/v3-4/CE/CEENDTC> a sdtmig:Variable ;
    rdfs:label "End Date/Time of Clinical Event" ;
    sdtmig:core "Perm" ;
    sdtmig:ordinal "23" ;
    sdtmig:role "Timing" ;
    sdtmig:simpleDatatype "Char" ;
    sdtmig:valueDomain "ISO 8601 datetime or interval" ;
    dc:description "End date/time of the clinical event, represented in ISO 8601 character format." ;
    dc:identifier "CEENDTC" .

<http://id.gsk.com/dataset/cdisc/sdtm-ig/v3-4/CE/CEENDY> a sdtmig:Variable ;
    rdfs:label "Study Day of End of Event" ;
    sdtmig:core "Perm" ;
    sdtmig:ordinal "26" ;
    sdtmig:role "Timing" ;
    sdtmig:simpleDatatype "Num" ;
    dc:description "Actual study day of end of the clinical event expressed in integer days relative to the sponsor-defined RFSTDTC in Demographics." ;
    dc:identifier "CEENDY" .

<http://id.gsk.com/dataset/cdisc/sdtm-ig/v3-4/CE/CEENRF> a sdtmig:Variable ;
    rdfs:label "End Relative to Reference Period" ;
    sdtmig:codeList <http://id.gsk.com/dataset/cdisc/ct/v48/sdtm/C66728> ;
    sdtmig:core "Perm" ;
    sdtmig:ordinal "28" ;
    sdtmig:role "Timing" ;
    sdtmig:simpleDatatype "Char" ;
    dc:description "Describes the end of the event relative to the sponsor-defined reference period. The sponsor-defined reference period is a continuous period of time defined by a discrete starting point and a discrete ending point (represented by RFSTDTC and RFENDTC in Demographics). \\n Not all values of the codelist are allowable for this variable. See Section 4.4.7, Use of Relative Timing Variables." ;
    dc:identifier "CEENRF" .

<http://id.gsk.com/dataset/cdisc/sdtm-ig/v3-4/CE/CEENRTPT> a sdtmig:Variable ;
    rdfs:label "End Relative to Reference Time Point" ;
    sdtmig:codeList <http://id.gsk.com/dataset/cdisc/ct/v48/sdtm/C66728> ;
    sdtmig:core "Perm" ;
    sdtmig:ordinal "31" ;
    sdtmig:role "Timing" ;
    sdtmig:simpleDatatype "Char" ;
    dc:description "Identifies the end of the observation as being before or after the sponsor-defined reference time point defined by variable CEENTPT. \\n Not all values of the codelist are allowable for this variable. See Section 4.4.7, Use of Relative Timing Variables." ;
    dc:identifier "CEENRTPT" .

<http://id.gsk.com/dataset/cdisc/sdtm-ig/v3-4/CE/CEENTPT> a sdtmig:Variable ;
    rdfs:label "End Reference Time Point" ;
    sdtmig:core "Perm" ;
    sdtmig:ordinal "32" ;
    sdtmig:role "Timing" ;
    sdtmig:simpleDatatype "Char" ;
    dc:description "Description or date/time in ISO 8601 character format of the reference point referred to by CEENRTPT. Examples: \"2003-12-25\", \"VISIT 2\"." ;
    dc:identifier "CEENTPT" .

<http://id.gsk.com/dataset/cdisc/sdtm-ig/v3-4/CE/CEGRPID> a sdtmig:Variable ;
    rdfs:label "Group ID" ;
    sdtmig:core "Perm" ;
    sdtmig:ordinal "5" ;
    sdtmig:role "Identifier" ;
    sdtmig:simpleDatatype "Char" ;
    dc:description "Used to link together a block of related records for a subject within a domain." ;
    dc:identifier "CEGRPID" .

<http://id.gsk.com/dataset/cdisc/sdtm-ig/v3-4/CE/CEOCCUR> a sdtmig:Variable ;
    rdfs:label "Clinical Event Occurrence" ;
    sdtmig:codeList <http://id.gsk.com/dataset/cdisc/ct/v48/sdtm/C66742> ;
    sdtmig:core "Perm" ;
    sdtmig:ordinal "13" ;
    sdtmig:role "Record Qualifier" ;
    sdtmig:simpleDatatype "Char" ;
    dc:description "Used when the occurrence of specific events is solicited, to indicate whether or not a clinical event occurred. Values are null for spontaneously reported events." ;
    dc:identifier "CEOCCUR" .

<http://id.gsk.com/dataset/cdisc/sdtm-ig/v3-4/CE/CEPRESP> a sdtmig:Variable ;
    rdfs:label "Clinical Event Pre-specified" ;
    sdtmig:codeList <http://id.gsk.com/dataset/cdisc/ct/v48/sdtm/C66742> ;
    sdtmig:core "Perm" ;
    sdtmig:ordinal "12" ;
    sdtmig:role "Variable Qualifier" ;
    sdtmig:simpleDatatype "Char" ;
    dc:description "Used to indicate whether the event in CETERM was prespecified. Value is \"Y\" for prespecified events and null for spontaneously reported events." ;
    dc:identifier "CEPRESP" .

<http://id.gsk.com/dataset/cdisc/sdtm-ig/v3-4/CE/CEREASND> a sdtmig:Variable ;
    rdfs:label "Reason Clinical Event Not Collected" ;
    sdtmig:core "Perm" ;
    sdtmig:ordinal "15" ;
    sdtmig:role "Record Qualifier" ;
    sdtmig:simpleDatatype "Char" ;
    dc:description "Describes the reason clinical event data was not collected. Used in conjunction with CESTAT when value is \"NOT DONE\"." ;
    dc:identifier "CEREASND" .

<http://id.gsk.com/dataset/cdisc/sdtm-ig/v3-4/CE/CEREFID> a sdtmig:Variable ;
    rdfs:label "Reference ID" ;
    sdtmig:core "Perm" ;
    sdtmig:ordinal "6" ;
    sdtmig:role "Identifier" ;
    sdtmig:simpleDatatype "Char" ;
    dc:description "Internal or external identifier (e.g., lab specimen ID, UUID for an ECG waveform or medical image)." ;
    dc:identifier "CEREFID" .

<http://id.gsk.com/dataset/cdisc/sdtm-ig/v3-4/CE/CESCAT> a sdtmig:Variable ;
    rdfs:label "Subcategory for the Clinical Event" ;
    sdtmig:core "Perm" ;
    sdtmig:ordinal "11" ;
    sdtmig:role "Grouping Qualifier" ;
    sdtmig:simpleDatatype "Char" ;
    dc:description "A further categorization of the condition or event." ;
    dc:identifier "CESCAT" .

<http://id.gsk.com/dataset/cdisc/sdtm-ig/v3-4/CE/CESEQ> a sdtmig:Variable ;
    rdfs:label "Sequence Number" ;
    sdtmig:core "Req" ;
    sdtmig:ordinal "4" ;
    sdtmig:role "Identifier" ;
    sdtmig:simpleDatatype "Num" ;
    dc:description "Sequence number given to ensure uniqueness of subject records within a domain. May be any valid number." ;
    dc:identifier "CESEQ" .

<http://id.gsk.com/dataset/cdisc/sdtm-ig/v3-4/CE/CESEV> a sdtmig:Variable ;
    rdfs:label "Severity/Intensity" ;
    sdtmig:codeList <http://id.gsk.com/dataset/cdisc/ct/v48/sdtm/C165643> ;
    sdtmig:core "Perm" ;
    sdtmig:ordinal "17" ;
    sdtmig:role "Record Qualifier" ;
    sdtmig:simpleDatatype "Char" ;
    dc:description "The severity or intensity of the event. Examples: \"MILD\", \"MODERATE\", \"SEVERE\"." ;
    dc:identifier "CESEV" .

<http://id.gsk.com/dataset/cdisc/sdtm-ig/v3-4/CE/CESPID> a sdtmig:Variable ;
    rdfs:label "Sponsor-Defined Identifier" ;
    sdtmig:core "Perm" ;
    sdtmig:ordinal "7" ;
    sdtmig:role "Identifier" ;
    sdtmig:simpleDatatype "Char" ;
    dc:description "Sponsor-defined identifier." ;
    dc:identifier "CESPID" .

<http://id.gsk.com/dataset/cdisc/sdtm-ig/v3-4/CE/CESTAT> a sdtmig:Variable ;
    rdfs:label "Completion Status" ;
    sdtmig:codeList <http://id.gsk.com/dataset/cdisc/ct/v48/sdtm/C66789> ;
    sdtmig:core "Perm" ;
    sdtmig:ordinal "14" ;
    sdtmig:role "Record Qualifier" ;
    sdtmig:simpleDatatype "Char" ;
    dc:description "The status indicates that a question from a prespecified list was not answered." ;
    dc:identifier "CESTAT" .

<http://id.gsk.com/dataset/cdisc/sdtm-ig/v3-4/CE/CESTDTC> a sdtmig:Variable ;
    rdfs:label "Start Date/Time of Clinical Event" ;
    sdtmig:core "Perm" ;
    sdtmig:ordinal "22" ;
    sdtmig:role "Timing" ;
    sdtmig:simpleDatatype "Char" ;
    sdtmig:valueDomain "ISO 8601 datetime or interval" ;
    dc:description "Start date/time of the clinical event represented in ISO 8601 character format." ;
    dc:identifier "CESTDTC" .

<http://id.gsk.com/dataset/cdisc/sdtm-ig/v3-4/CE/CESTDY> a sdtmig:Variable ;
    rdfs:label "Study Day of Start of Event" ;
    sdtmig:core "Perm" ;
    sdtmig:ordinal "25" ;
    sdtmig:role "Timing" ;
    sdtmig:simpleDatatype "Num" ;
    dc:description "Actual study day of start of the clinical event expressed in integer days relative to the sponsor-defined RFSTDTC in Demographics." ;
    dc:identifier "CESTDY" .

<http://id.gsk.com/dataset/cdisc/sdtm-ig/v3-4/CE/CESTRF> a sdtmig:Variable ;
    rdfs:label "Start Relative to Reference Period" ;
    sdtmig:codeList <http://id.gsk.com/dataset/cdisc/ct/v48/sdtm/C66728> ;
    sdtmig:core "Perm" ;
    sdtmig:ordinal "27" ;
    sdtmig:role "Timing" ;
    sdtmig:simpleDatatype "Char" ;
    dc:description "Describes the start of the clinical event relative to the sponsor-defined reference period. The sponsor-defined reference period is a continuous period of time defined by a discrete starting point and a discrete ending point (represented by RFSTDTC and RFENDTC in Demographics). \\n Not all values of the codelist are allowable for this variable. See Section 4.4.7, Use of Relative Timing Variables." ;
    dc:identifier "CESTRF" .

<http://id.gsk.com/dataset/cdisc/sdtm-ig/v3-4/CE/CESTRTPT> a sdtmig:Variable ;
    rdfs:label "Start Relative to Reference Time Point" ;
    sdtmig:codeList <http://id.gsk.com/dataset/cdisc/ct/v48/sdtm/C66728> ;
    sdtmig:core "Perm" ;
    sdtmig:ordinal "29" ;
    sdtmig:role "Timing" ;
    sdtmig:simpleDatatype "Char" ;
    dc:description "Identifies the start of the observation as being before or after the reference time point defined by variable CESTTPT. \\n Not all values of the codelist are allowable for this variable. See Section 4.4.7, Use of Relative Timing Variables." ;
    dc:identifier "CESTRTPT" .

<http://id.gsk.com/dataset/cdisc/sdtm-ig/v3-4/CE/CESTTPT> a sdtmig:Variable ;
    rdfs:label "Start Reference Time Point" ;
    sdtmig:core "Perm" ;
    sdtmig:ordinal "30" ;
    sdtmig:role "Timing" ;
    sdtmig:simpleDatatype "Char" ;
    dc:description "Description or date/time in ISO 8601 character format of the sponsor-defined reference point referred to by --STRTPT. Examples: \"2003-12-15\", \"VISIT 1\"." ;
    dc:identifier "CESTTPT" .

<http://id.gsk.com/dataset/cdisc/sdtm-ig/v3-4/CE/CETERM> a sdtmig:Variable ;
    rdfs:label "Reported Term for the Clinical Event" ;
    sdtmig:core "Req" ;
    sdtmig:ordinal "8" ;
    sdtmig:role "Topic" ;
    sdtmig:simpleDatatype "Char" ;
    dc:description "Term for the medical condition or event. Most likely preprinted on CRF." ;
    dc:identifier "CETERM" .

<http://id.gsk.com/dataset/cdisc/sdtm-ig/v3-4/CE/CETOXGR> a sdtmig:Variable ;
    rdfs:label "Standard Toxicity Grade" ;
    sdtmig:core "Perm" ;
    sdtmig:ordinal "18" ;
    sdtmig:role "Record Qualifier" ;
    sdtmig:simpleDatatype "Char" ;
    dc:description "Toxicity grade according to a standard toxicity scale (e.g., Common Terminology Criteria for Adverse Events (CTCAE) v3.0). Sponsor should specify name of the scale and version used in the metadata. If value is from a numeric scale, represent only the number (e.g., \"2\", not \"Grade 2\")." ;
    dc:identifier "CETOXGR" .

<http://id.gsk.com/dataset/cdisc/sdtm-ig/v3-4/CE/DOMAIN> a sdtmig:Variable ;
    rdfs:label "Domain Abbreviation" ;
    sdtmig:core "Req" ;
    sdtmig:ordinal "2" ;
    sdtmig:role "Identifier" ;
    sdtmig:simpleDatatype "Char" ;
    dc:description "Two-character abbreviation for the domain." ;
    dc:identifier "DOMAIN" .

<http://id.gsk.com/dataset/cdisc/sdtm-ig/v3-4/CE/EPOCH> a sdtmig:Variable ;
    rdfs:label "Epoch" ;
    sdtmig:codeList <http://id.gsk.com/dataset/cdisc/ct/v48/sdtm/C99079> ;
    sdtmig:core "Perm" ;
    sdtmig:ordinal "20" ;
    sdtmig:role "Timing" ;
    sdtmig:simpleDatatype "Char" ;
    dc:description "Epoch associated with the start date/time of the clinical event." ;
    dc:identifier "EPOCH" .

<http://id.gsk.com/dataset/cdisc/sdtm-ig/v3-4/CE/STUDYID> a sdtmig:Variable ;
    rdfs:label "Study Identifier" ;
    sdtmig:core "Req" ;
    sdtmig:ordinal "1" ;
    sdtmig:role "Identifier" ;
    sdtmig:simpleDatatype "Char" ;
    dc:description "Unique identifier for a study." ;
    dc:identifier "STUDYID" .

<http://id.gsk.com/dataset/cdisc/sdtm-ig/v3-4/CE/TAETORD> a sdtmig:Variable ;
    rdfs:label "Planned Order of Element within Arm" ;
    sdtmig:core "Perm" ;
    sdtmig:ordinal "19" ;
    sdtmig:role "Timing" ;
    sdtmig:simpleDatatype "Num" ;
    dc:description "Number that gives the planned order of the element within the arm for the element in which the clinical event started." ;
    dc:identifier "TAETORD" .

<http://id.gsk.com/dataset/cdisc/sdtm-ig/v3-4/CE/USUBJID> a sdtmig:Variable ;
    rdfs:label "Unique Subject Identifier" ;
    sdtmig:core "Req" ;
    sdtmig:ordinal "3" ;
    sdtmig:role "Identifier" ;
    sdtmig:simpleDatatype "Char" ;
    dc:description "Identifier used to uniquely identify a subject across all studies for all applications or submissions involving the product." ;
    dc:identifier "USUBJID" .

<http://id.gsk.com/dataset/cdisc/sdtm-ig/v3-4/CM> a sdtmig:Domain ;
    rdfs:label "Concomitant/Prior Medications" ;
    sdtmig:hasVariable <http://id.gsk.com/dataset/cdisc/sdtm-ig/v3-4/CM/CMADJ>,
        <http://id.gsk.com/dataset/cdisc/sdtm-ig/v3-4/CM/CMCAT>,
        <http://id.gsk.com/dataset/cdisc/sdtm-ig/v3-4/CM/CMCLAS>,
        <http://id.gsk.com/dataset/cdisc/sdtm-ig/v3-4/CM/CMCLASCD>,
        <http://id.gsk.com/dataset/cdisc/sdtm-ig/v3-4/CM/CMDECOD>,
        <http://id.gsk.com/dataset/cdisc/sdtm-ig/v3-4/CM/CMDOSE>,
        <http://id.gsk.com/dataset/cdisc/sdtm-ig/v3-4/CM/CMDOSFRM>,
        <http://id.gsk.com/dataset/cdisc/sdtm-ig/v3-4/CM/CMDOSFRQ>,
        <http://id.gsk.com/dataset/cdisc/sdtm-ig/v3-4/CM/CMDOSRGM>,
        <http://id.gsk.com/dataset/cdisc/sdtm-ig/v3-4/CM/CMDOSTOT>,
        <http://id.gsk.com/dataset/cdisc/sdtm-ig/v3-4/CM/CMDOSTXT>,
        <http://id.gsk.com/dataset/cdisc/sdtm-ig/v3-4/CM/CMDOSU>,
        <http://id.gsk.com/dataset/cdisc/sdtm-ig/v3-4/CM/CMDUR>,
        <http://id.gsk.com/dataset/cdisc/sdtm-ig/v3-4/CM/CMENDTC>,
        <http://id.gsk.com/dataset/cdisc/sdtm-ig/v3-4/CM/CMENDY>,
        <http://id.gsk.com/dataset/cdisc/sdtm-ig/v3-4/CM/CMENRF>,
        <http://id.gsk.com/dataset/cdisc/sdtm-ig/v3-4/CM/CMENRTPT>,
        <http://id.gsk.com/dataset/cdisc/sdtm-ig/v3-4/CM/CMENTPT>,
        <http://id.gsk.com/dataset/cdisc/sdtm-ig/v3-4/CM/CMGRPID>,
        <http://id.gsk.com/dataset/cdisc/sdtm-ig/v3-4/CM/CMINDC>,
        <http://id.gsk.com/dataset/cdisc/sdtm-ig/v3-4/CM/CMMODIFY>,
        <http://id.gsk.com/dataset/cdisc/sdtm-ig/v3-4/CM/CMOCCUR>,
        <http://id.gsk.com/dataset/cdisc/sdtm-ig/v3-4/CM/CMPRESP>,
        <http://id.gsk.com/dataset/cdisc/sdtm-ig/v3-4/CM/CMREASND>,
        <http://id.gsk.com/dataset/cdisc/sdtm-ig/v3-4/CM/CMROUTE>,
        <http://id.gsk.com/dataset/cdisc/sdtm-ig/v3-4/CM/CMRSDISC>,
        <http://id.gsk.com/dataset/cdisc/sdtm-ig/v3-4/CM/CMSCAT>,
        <http://id.gsk.com/dataset/cdisc/sdtm-ig/v3-4/CM/CMSEQ>,
        <http://id.gsk.com/dataset/cdisc/sdtm-ig/v3-4/CM/CMSPID>,
        <http://id.gsk.com/dataset/cdisc/sdtm-ig/v3-4/CM/CMSTAT>,
        <http://id.gsk.com/dataset/cdisc/sdtm-ig/v3-4/CM/CMSTDTC>,
        <http://id.gsk.com/dataset/cdisc/sdtm-ig/v3-4/CM/CMSTDY>,
        <http://id.gsk.com/dataset/cdisc/sdtm-ig/v3-4/CM/CMSTRF>,
        <http://id.gsk.com/dataset/cdisc/sdtm-ig/v3-4/CM/CMSTRTPT>,
        <http://id.gsk.com/dataset/cdisc/sdtm-ig/v3-4/CM/CMSTTPT>,
        <http://id.gsk.com/dataset/cdisc/sdtm-ig/v3-4/CM/CMTRT>,
        <http://id.gsk.com/dataset/cdisc/sdtm-ig/v3-4/CM/DOMAIN>,
        <http://id.gsk.com/dataset/cdisc/sdtm-ig/v3-4/CM/EPOCH>,
        <http://id.gsk.com/dataset/cdisc/sdtm-ig/v3-4/CM/STUDYID>,
        <http://id.gsk.com/dataset/cdisc/sdtm-ig/v3-4/CM/TAETORD>,
        <http://id.gsk.com/dataset/cdisc/sdtm-ig/v3-4/CM/USUBJID> ;
    sdtmig:ordinal "6" ;
    sdtmig:structure "One record per recorded intervention occurrence or constant-dosing interval per subject" ;
    dc:description "Concomitant/Prior Medications" ;
    dc:identifier "CM" .

<http://id.gsk.com/dataset/cdisc/sdtm-ig/v3-4/CM/CMADJ> a sdtmig:Variable ;
    rdfs:label "Reason for Dose Adjustment" ;
    sdtmig:core "Perm" ;
    sdtmig:ordinal "27" ;
    sdtmig:role "Record Qualifier" ;
    sdtmig:simpleDatatype "Char" ;
    dc:description "Describes reason or explanation of why a dose is adjusted. Examples: \"ADVERSE EVENT\", \"INSUFFICIENT RESPONSE\", \"NON-MEDICAL REASON\"." ;
    dc:identifier "CMADJ" .

<http://id.gsk.com/dataset/cdisc/sdtm-ig/v3-4/CM/CMCAT> a sdtmig:Variable ;
    rdfs:label "Category for Medication" ;
    sdtmig:core "Perm" ;
    sdtmig:ordinal "10" ;
    sdtmig:role "Grouping Qualifier" ;
    sdtmig:simpleDatatype "Char" ;
    dc:description "Used to define a category of medications/treatment. Examples: \"PRIOR\", \"CONCOMITANT\", \"ANTI-CANCER MEDICATION\", \"GENERAL CONMED\"." ;
    dc:identifier "CMCAT" .

<http://id.gsk.com/dataset/cdisc/sdtm-ig/v3-4/CM/CMCLAS> a sdtmig:Variable ;
    rdfs:label "Medication Class" ;
    sdtmig:core "Perm" ;
    sdtmig:ordinal "17" ;
    sdtmig:role "Variable Qualifier" ;
    sdtmig:simpleDatatype "Char" ;
    dc:description "Drug class. May be obtained from coding. When coding to a single class, populate with class value. If using a dictionary and coding to multiple classes, then follow Section 4.2.8.3, Multiple Values for a Non-result Qualifier Variable, or omit CMCLAS." ;
    dc:identifier "CMCLAS" .

<http://id.gsk.com/dataset/cdisc/sdtm-ig/v3-4/CM/CMCLASCD> a sdtmig:Variable ;
    rdfs:label "Medication Class Code" ;
    sdtmig:core "Perm" ;
    sdtmig:ordinal "18" ;
    sdtmig:role "Variable Qualifier" ;
    sdtmig:simpleDatatype "Char" ;
    dc:description "Class code corresponding to CMCLAS. Drug class. May be obtained from coding. When coding to a single class, populate with class code. If using a dictionary and coding to multiple classes, then follow Section 4.2.8.3, Multiple Values for a Non-result Qualifier Variable, or omit CMCLASCD." ;
    dc:identifier "CMCLASCD" .

<http://id.gsk.com/dataset/cdisc/sdtm-ig/v3-4/CM/CMDECOD> a sdtmig:Variable ;
    rdfs:label "Standardized Medication Name" ;
    sdtmig:core "Perm" ;
    sdtmig:ordinal "9" ;
    sdtmig:role "Synonym Qualifier" ;
    sdtmig:simpleDatatype "Char" ;
    dc:description "Standardized or dictionary-derived text description of CMTRT or CMMODIFY. Equivalent to the generic drug name in WHO Drug. The sponsor is expected to provide the dictionary name and version used to map the terms utilizing the external codelist element in the Define-XML document. If an intervention term does not have a decode value in the dictionary, then CMDECOD will be left blank." ;
    dc:identifier "CMDECOD" .

<http://id.gsk.com/dataset/cdisc/sdtm-ig/v3-4/CM/CMDOSE> a sdtmig:Variable ;
    rdfs:label "Dose per Administration" ;
    sdtmig:core "Perm" ;
    sdtmig:ordinal "19" ;
    sdtmig:role "Record Qualifier" ;
    sdtmig:simpleDatatype "Num" ;
    dc:description "Amount of CMTRT given. Not populated when CMDOSTXT is populated." ;
    dc:identifier "CMDOSE" .

<http://id.gsk.com/dataset/cdisc/sdtm-ig/v3-4/CM/CMDOSFRM> a sdtmig:Variable ;
    rdfs:label "Dose Form" ;
    sdtmig:codeList <http://id.gsk.com/dataset/cdisc/ct/v48/sdtm/C66726> ;
    sdtmig:core "Perm" ;
    sdtmig:ordinal "22" ;
    sdtmig:role "Variable Qualifier" ;
    sdtmig:simpleDatatype "Char" ;
    dc:description "Dose form for CMTRT. Examples: \"TABLET\", \"LOTION\"." ;
    dc:identifier "CMDOSFRM" .

<http://id.gsk.com/dataset/cdisc/sdtm-ig/v3-4/CM/CMDOSFRQ> a sdtmig:Variable ;
    rdfs:label "Dosing Frequency per Interval" ;
    sdtmig:codeList <http://id.gsk.com/dataset/cdisc/ct/v48/sdtm/C71113> ;
    sdtmig:core "Perm" ;
    sdtmig:ordinal "23" ;
    sdtmig:role "Record Qualifier" ;
    sdtmig:simpleDatatype "Char" ;
    dc:description "Usually expressed as the number of repeated administrations of CMDOSE within a specific time period. Examples: \"BID\" (twice daily), \"Q12H\" (every 12 hours)." ;
    dc:identifier "CMDOSFRQ" .

<http://id.gsk.com/dataset/cdisc/sdtm-ig/v3-4/CM/CMDOSRGM> a sdtmig:Variable ;
    rdfs:label "Intended Dose Regimen" ;
    sdtmig:core "Perm" ;
    sdtmig:ordinal "25" ;
    sdtmig:role "Record Qualifier" ;
    sdtmig:simpleDatatype "Char" ;
    dc:description "Text description of the (intended) schedule or regimen for the Intervention. Example: \"TWO WEEKS ON, TWO WEEKS OFF\"." ;
    dc:identifier "CMDOSRGM" .

<http://id.gsk.com/dataset/cdisc/sdtm-ig/v3-4/CM/CMDOSTOT> a sdtmig:Variable ;
    rdfs:label "Total Daily Dose" ;
    sdtmig:core "Perm" ;
    sdtmig:ordinal "24" ;
    sdtmig:role "Record Qualifier" ;
    sdtmig:simpleDatatype "Num" ;
    dc:description "Total daily dose of CMTRT using the units in CMDOSU. Used when dosing is collected as total daily dose. Total dose over a period other than day could be recorded in a separate supplemental qualifier variable." ;
    dc:identifier "CMDOSTOT" .

<http://id.gsk.com/dataset/cdisc/sdtm-ig/v3-4/CM/CMDOSTXT> a sdtmig:Variable ;
    rdfs:label "Dose Description" ;
    sdtmig:core "Perm" ;
    sdtmig:ordinal "20" ;
    sdtmig:role "Record Qualifier" ;
    sdtmig:simpleDatatype "Char" ;
    dc:description "Dosing amounts or a range of dosing information collected in text form. Units may be stored in CMDOSU. Examples: \"200-400\", \"15-20\". Not populated when CMDOSE is populated." ;
    dc:identifier "CMDOSTXT" .

<http://id.gsk.com/dataset/cdisc/sdtm-ig/v3-4/CM/CMDOSU> a sdtmig:Variable ;
    rdfs:label "Dose Units" ;
    sdtmig:codeList <http://id.gsk.com/dataset/cdisc/ct/v48/sdtm/C71620> ;
    sdtmig:core "Perm" ;
    sdtmig:ordinal "21" ;
    sdtmig:role "Variable Qualifier" ;
    sdtmig:simpleDatatype "Char" ;
    dc:description "Units for CMDOSE, CMDOSTOT, or CMDOSTXT. Examples: \"ng\", \"mg\", \"mg/kg\"." ;
    dc:identifier "CMDOSU" .

<http://id.gsk.com/dataset/cdisc/sdtm-ig/v3-4/CM/CMDUR> a sdtmig:Variable ;
    rdfs:label "Duration" ;
    sdtmig:core "Perm" ;
    sdtmig:ordinal "35" ;
    sdtmig:role "Timing" ;
    sdtmig:simpleDatatype "Char" ;
    sdtmig:valueDomain "ISO 8601 duration" ;
    dc:description "Collected duration for a treatment episode. Used only if collected on the CRF and not derived from start and end date/times." ;
    dc:identifier "CMDUR" .

<http://id.gsk.com/dataset/cdisc/sdtm-ig/v3-4/CM/CMENDTC> a sdtmig:Variable ;
    rdfs:label "End Date/Time of Medication" ;
    sdtmig:core "Perm" ;
    sdtmig:ordinal "32" ;
    sdtmig:role "Timing" ;
    sdtmig:simpleDatatype "Char" ;
    sdtmig:valueDomain "ISO 8601 datetime or interval" ;
    dc:description "End date/time of the medication administration represented in ISO 8601 character format." ;
    dc:identifier "CMENDTC" .

<http://id.gsk.com/dataset/cdisc/sdtm-ig/v3-4/CM/CMENDY> a sdtmig:Variable ;
    rdfs:label "Study Day of End of Medication" ;
    sdtmig:core "Perm" ;
    sdtmig:ordinal "34" ;
    sdtmig:role "Timing" ;
    sdtmig:simpleDatatype "Num" ;
    dc:description "Study day of end of medication relative to the sponsor-defined RFSTDTC." ;
    dc:identifier "CMENDY" .

<http://id.gsk.com/dataset/cdisc/sdtm-ig/v3-4/CM/CMENRF> a sdtmig:Variable ;
    rdfs:label "End Relative to Reference Period" ;
    sdtmig:codeList <http://id.gsk.com/dataset/cdisc/ct/v48/sdtm/C66728> ;
    sdtmig:core "Perm" ;
    sdtmig:ordinal "37" ;
    sdtmig:role "Timing" ;
    sdtmig:simpleDatatype "Char" ;
    dc:description "Describes the end of the medication relative to the sponsor-defined reference period. The sponsor-defined reference period is a continuous period of time defined by a discrete starting point and a discrete ending point (represented by RFSTDTC and RFENDTC in Demographics). If information such as \"PRIOR\", \"ONGOING, or \"CONTINUING\" was collected, this information may be translated into CMENRF. \\n Not all values of the codelist are allowable for this variable. See Section 4.4.7, Use of Relative Timing Variables." ;
    dc:identifier "CMENRF" .

<http://id.gsk.com/dataset/cdisc/sdtm-ig/v3-4/CM/CMENRTPT> a sdtmig:Variable ;
    rdfs:label "End Relative to Reference Time Point" ;
    sdtmig:codeList <http://id.gsk.com/dataset/cdisc/ct/v48/sdtm/C66728> ;
    sdtmig:core "Perm" ;
    sdtmig:ordinal "40" ;
    sdtmig:role "Timing" ;
    sdtmig:simpleDatatype "Char" ;
    dc:description "Identifies the end of the medication as being before or after the sponsor-defined reference time point defined by variable CMENTPT. \\n Not all values of the codelist are allowable for this variable. See Section 4.4.7, Use of Relative Timing Variables." ;
    dc:identifier "CMENRTPT" .

<http://id.gsk.com/dataset/cdisc/sdtm-ig/v3-4/CM/CMENTPT> a sdtmig:Variable ;
    rdfs:label "End Reference Time Point" ;
    sdtmig:core "Perm" ;
    sdtmig:ordinal "41" ;
    sdtmig:role "Timing" ;
    sdtmig:simpleDatatype "Char" ;
    dc:description "Description or date/time in ISO 8601 character format of the sponsor-defined reference point referred to by CMENRTPT. Examples: \"2003-12-25\", \"VISIT 2\"." ;
    dc:identifier "CMENTPT" .

<http://id.gsk.com/dataset/cdisc/sdtm-ig/v3-4/CM/CMGRPID> a sdtmig:Variable ;
    rdfs:label "Group ID" ;
    sdtmig:core "Perm" ;
    sdtmig:ordinal "5" ;
    sdtmig:role "Identifier" ;
    sdtmig:simpleDatatype "Char" ;
    dc:description "Used to tie together a block of related records in a single domain for a subject." ;
    dc:identifier "CMGRPID" .

<http://id.gsk.com/dataset/cdisc/sdtm-ig/v3-4/CM/CMINDC> a sdtmig:Variable ;
    rdfs:label "Indication" ;
    sdtmig:core "Perm" ;
    sdtmig:ordinal "16" ;
    sdtmig:role "Record Qualifier" ;
    sdtmig:simpleDatatype "Char" ;
    dc:description "Denotes why a medication was taken or administered. Examples: \"NAUSEA\", \"HYPERTENSION\"." ;
    dc:identifier "CMINDC" .

<http://id.gsk.com/dataset/cdisc/sdtm-ig/v3-4/CM/CMMODIFY> a sdtmig:Variable ;
    rdfs:label "Modified Reported Name" ;
    sdtmig:core "Perm" ;
    sdtmig:ordinal "8" ;
    sdtmig:role "Synonym Qualifier" ;
    sdtmig:simpleDatatype "Char" ;
    dc:description "If CMTRT is modified to facilitate coding, then CMMODIFY will contain the modified text." ;
    dc:identifier "CMMODIFY" .

<http://id.gsk.com/dataset/cdisc/sdtm-ig/v3-4/CM/CMOCCUR> a sdtmig:Variable ;
    rdfs:label "CM Occurrence" ;
    sdtmig:codeList <http://id.gsk.com/dataset/cdisc/ct/v48/sdtm/C66742> ;
    sdtmig:core "Perm" ;
    sdtmig:ordinal "13" ;
    sdtmig:role "Record Qualifier" ;
    sdtmig:simpleDatatype "Char" ;
    dc:description "When the use of a specific medication is solicited. CMOCCUR is used to indicate whether (\"Y\"/\"N\") use of the medication occurred. Values are null for medications not specifically solicited." ;
    dc:identifier "CMOCCUR" .

<http://id.gsk.com/dataset/cdisc/sdtm-ig/v3-4/CM/CMPRESP> a sdtmig:Variable ;
    rdfs:label "CM Pre-specified" ;
    sdtmig:codeList <http://id.gsk.com/dataset/cdisc/ct/v48/sdtm/C66742> ;
    sdtmig:core "Perm" ;
    sdtmig:ordinal "12" ;
    sdtmig:role "Variable Qualifier" ;
    sdtmig:simpleDatatype "Char" ;
    dc:description "Used to indicate whether (\"Y\"/null) information about the use of a specific medication was solicited on the CRF." ;
    dc:identifier "CMPRESP" .

<http://id.gsk.com/dataset/cdisc/sdtm-ig/v3-4/CM/CMREASND> a sdtmig:Variable ;
    rdfs:label "Reason Medication Not Collected" ;
    sdtmig:core "Perm" ;
    sdtmig:ordinal "15" ;
    sdtmig:role "Record Qualifier" ;
    sdtmig:simpleDatatype "Char" ;
    dc:description "Reason not done. Used in conjunction with CMSTAT when value is \"NOT DONE\"." ;
    dc:identifier "CMREASND" .

<http://id.gsk.com/dataset/cdisc/sdtm-ig/v3-4/CM/CMROUTE> a sdtmig:Variable ;
    rdfs:label "Route of Administration" ;
    sdtmig:codeList <http://id.gsk.com/dataset/cdisc/ct/v48/sdtm/C66729> ;
    sdtmig:core "Perm" ;
    sdtmig:ordinal "26" ;
    sdtmig:role "Variable Qualifier" ;
    sdtmig:simpleDatatype "Char" ;
    dc:description "Route of administration for the intervention. Examples: \"ORAL\", \"INTRAVENOUS\"." ;
    dc:identifier "CMROUTE" .

<http://id.gsk.com/dataset/cdisc/sdtm-ig/v3-4/CM/CMRSDISC> a sdtmig:Variable ;
    rdfs:label "Reason the Intervention Was Discontinued" ;
    sdtmig:core "Perm" ;
    sdtmig:ordinal "28" ;
    sdtmig:role "Record Qualifier" ;
    sdtmig:simpleDatatype "Char" ;
    dc:description "When dosing of a treatment is recorded over multiple successive records, this variable is applicable only for the (chronologically) last record for the treatment." ;
    dc:identifier "CMRSDISC" .

<http://id.gsk.com/dataset/cdisc/sdtm-ig/v3-4/CM/CMSCAT> a sdtmig:Variable ;
    rdfs:label "Subcategory for Medication" ;
    sdtmig:core "Perm" ;
    sdtmig:ordinal "11" ;
    sdtmig:role "Grouping Qualifier" ;
    sdtmig:simpleDatatype "Char" ;
    dc:description "A further categorization of medications/treatment. Examples: \"CHEMOTHERAPY\", \"HORMONAL THERAPY\", \"ALTERNATIVE THERAPY\"." ;
    dc:identifier "CMSCAT" .

<http://id.gsk.com/dataset/cdisc/sdtm-ig/v3-4/CM/CMSEQ> a sdtmig:Variable ;
    rdfs:label "Sequence Number" ;
    sdtmig:core "Req" ;
    sdtmig:ordinal "4" ;
    sdtmig:role "Identifier" ;
    sdtmig:simpleDatatype "Num" ;
    dc:description "Sequence number to ensure uniqueness of subject records within a domain. May be any valid number." ;
    dc:identifier "CMSEQ" .

<http://id.gsk.com/dataset/cdisc/sdtm-ig/v3-4/CM/CMSPID> a sdtmig:Variable ;
    rdfs:label "Sponsor-Defined Identifier" ;
    sdtmig:core "Perm" ;
    sdtmig:ordinal "6" ;
    sdtmig:role "Identifier" ;
    sdtmig:simpleDatatype "Char" ;
    dc:description "Sponsor-defined reference number. Example: a number preprinted on the CRF as an explicit line identifier or record identifier defined in the sponsor\'s operational database. Example: line number on a concomitant medication page." ;
    dc:identifier "CMSPID" .

<http://id.gsk.com/dataset/cdisc/sdtm-ig/v3-4/CM/CMSTAT> a sdtmig:Variable ;
    rdfs:label "Completion Status" ;
    sdtmig:codeList <http://id.gsk.com/dataset/cdisc/ct/v48/sdtm/C66789> ;
    sdtmig:core "Perm" ;
    sdtmig:ordinal "14" ;
    sdtmig:role "Record Qualifier" ;
    sdtmig:simpleDatatype "Char" ;
    dc:description "Used to indicate that a question about the occurrence of a prespecified intervention was not answered. Should be null or have a value of \"NOT DONE\"." ;
    dc:identifier "CMSTAT" .

<http://id.gsk.com/dataset/cdisc/sdtm-ig/v3-4/CM/CMSTDTC> a sdtmig:Variable ;
    rdfs:label "Start Date/Time of Medication" ;
    sdtmig:core "Perm" ;
    sdtmig:ordinal "31" ;
    sdtmig:role "Timing" ;
    sdtmig:simpleDatatype "Char" ;
    sdtmig:valueDomain "ISO 8601 datetime or interval" ;
    dc:description "Start date/time of the medication administration represented in ISO 8601 character format." ;
    dc:identifier "CMSTDTC" .

<http://id.gsk.com/dataset/cdisc/sdtm-ig/v3-4/CM/CMSTDY> a sdtmig:Variable ;
    rdfs:label "Study Day of Start of Medication" ;
    sdtmig:core "Perm" ;
    sdtmig:ordinal "33" ;
    sdtmig:role "Timing" ;
    sdtmig:simpleDatatype "Num" ;
    dc:description "Study day of start of medication relative to the sponsor-defined RFSTDTC." ;
    dc:identifier "CMSTDY" .

<http://id.gsk.com/dataset/cdisc/sdtm-ig/v3-4/CM/CMSTRF> a sdtmig:Variable ;
    rdfs:label "Start Relative to Reference Period" ;
    sdtmig:codeList <http://id.gsk.com/dataset/cdisc/ct/v48/sdtm/C66728> ;
    sdtmig:core "Perm" ;
    sdtmig:ordinal "36" ;
    sdtmig:role "Timing" ;
    sdtmig:simpleDatatype "Char" ;
    dc:description "Describes the start of the medication relative to sponsor-defined reference period. The sponsor-defined reference period is a continuous period of time defined by a discrete starting point and a discrete ending point (represented by RFSTDTC and RFENDTC in Demographics). If information such as \"PRIOR\" was collected, this information may be translated into CMSTRF. \\n Not all values of the codelist are allowable for this variable. See Section 4.4.7, Use of Relative Timing Variables." ;
    dc:identifier "CMSTRF" .

<http://id.gsk.com/dataset/cdisc/sdtm-ig/v3-4/CM/CMSTRTPT> a sdtmig:Variable ;
    rdfs:label "Start Relative to Reference Time Point" ;
    sdtmig:codeList <http://id.gsk.com/dataset/cdisc/ct/v48/sdtm/C66728> ;
    sdtmig:core "Perm" ;
    sdtmig:ordinal "38" ;
    sdtmig:role "Timing" ;
    sdtmig:simpleDatatype "Char" ;
    dc:description "Identifies the start of the medication as being before or after the sponsor-defined reference time point defined by variable CMSTTPT. \\n Not all values of the codelist are allowable for this variable. See Section 4.4.7, Use of Relative Timing Variables." ;
    dc:identifier "CMSTRTPT" .

<http://id.gsk.com/dataset/cdisc/sdtm-ig/v3-4/CM/CMSTTPT> a sdtmig:Variable ;
    rdfs:label "Start Reference Time Point" ;
    sdtmig:core "Perm" ;
    sdtmig:ordinal "39" ;
    sdtmig:role "Timing" ;
    sdtmig:simpleDatatype "Char" ;
    dc:description "Description or date/time in ISO 8601 character format of the sponsor-defined reference point referred to by CMSTRTPT. Examples: \"2003-12-15\", \"VISIT 1\"." ;
    dc:identifier "CMSTTPT" .

<http://id.gsk.com/dataset/cdisc/sdtm-ig/v3-4/CM/CMTRT> a sdtmig:Variable ;
    rdfs:label "Reported Name of Drug, Med, or Therapy" ;
    sdtmig:core "Req" ;
    sdtmig:ordinal "7" ;
    sdtmig:role "Topic" ;
    sdtmig:simpleDatatype "Char" ;
    dc:description "Verbatim medication name that is either preprinted or collected on a CRF." ;
    dc:identifier "CMTRT" .

<http://id.gsk.com/dataset/cdisc/sdtm-ig/v3-4/CM/DOMAIN> a sdtmig:Variable ;
    rdfs:label "Domain Abbreviation" ;
    sdtmig:core "Req" ;
    sdtmig:ordinal "2" ;
    sdtmig:role "Identifier" ;
    sdtmig:simpleDatatype "Char" ;
    dc:description "Two-character abbreviation for the domain." ;
    dc:identifier "DOMAIN" .

<http://id.gsk.com/dataset/cdisc/sdtm-ig/v3-4/CM/EPOCH> a sdtmig:Variable ;
    rdfs:label "Epoch" ;
    sdtmig:codeList <http://id.gsk.com/dataset/cdisc/ct/v48/sdtm/C99079> ;
    sdtmig:core "Perm" ;
    sdtmig:ordinal "30" ;
    sdtmig:role "Timing" ;
    sdtmig:simpleDatatype "Char" ;
    dc:description "Epoch associated with the start date/time of the medication administration. Null for medications that started before study participation." ;
    dc:identifier "EPOCH" .

<http://id.gsk.com/dataset/cdisc/sdtm-ig/v3-4/CM/STUDYID> a sdtmig:Variable ;
    rdfs:label "Study Identifier" ;
    sdtmig:core "Req" ;
    sdtmig:ordinal "1" ;
    sdtmig:role "Identifier" ;
    sdtmig:simpleDatatype "Char" ;
    dc:description "Unique identifier for a study." ;
    dc:identifier "STUDYID" .

<http://id.gsk.com/dataset/cdisc/sdtm-ig/v3-4/CM/TAETORD> a sdtmig:Variable ;
    rdfs:label "Planned Order of Element within Arm" ;
    sdtmig:core "Perm" ;
    sdtmig:ordinal "29" ;
    sdtmig:role "Timing" ;
    sdtmig:simpleDatatype "Num" ;
    dc:description "Number that gives the planned order of the element within the arm for the element in which the medication administration started. Null for medications that started before study participation." ;
    dc:identifier "TAETORD" .

<http://id.gsk.com/dataset/cdisc/sdtm-ig/v3-4/CM/USUBJID> a sdtmig:Variable ;
    rdfs:label "Unique Subject Identifier" ;
    sdtmig:core "Req" ;
    sdtmig:ordinal "3" ;
    sdtmig:role "Identifier" ;
    sdtmig:simpleDatatype "Char" ;
    dc:description "Identifier used to uniquely identify a subject across all studies for all applications or submissions involving the product." ;
    dc:identifier "USUBJID" .

<http://id.gsk.com/dataset/cdisc/sdtm-ig/v3-4/CO> a sdtmig:Domain ;
    rdfs:label "Comments" ;
    sdtmig:hasVariable <http://id.gsk.com/dataset/cdisc/sdtm-ig/v3-4/CO/CODTC>,
        <http://id.gsk.com/dataset/cdisc/sdtm-ig/v3-4/CO/CODY>,
        <http://id.gsk.com/dataset/cdisc/sdtm-ig/v3-4/CO/COEVAL>,
        <http://id.gsk.com/dataset/cdisc/sdtm-ig/v3-4/CO/COEVALID>,
        <http://id.gsk.com/dataset/cdisc/sdtm-ig/v3-4/CO/COREF>,
        <http://id.gsk.com/dataset/cdisc/sdtm-ig/v3-4/CO/COSEQ>,
        <http://id.gsk.com/dataset/cdisc/sdtm-ig/v3-4/CO/COVAL>,
        <http://id.gsk.com/dataset/cdisc/sdtm-ig/v3-4/CO/DOMAIN>,
        <http://id.gsk.com/dataset/cdisc/sdtm-ig/v3-4/CO/IDVAR>,
        <http://id.gsk.com/dataset/cdisc/sdtm-ig/v3-4/CO/IDVARVAL>,
        <http://id.gsk.com/dataset/cdisc/sdtm-ig/v3-4/CO/RDOMAIN>,
        <http://id.gsk.com/dataset/cdisc/sdtm-ig/v3-4/CO/STUDYID>,
        <http://id.gsk.com/dataset/cdisc/sdtm-ig/v3-4/CO/USUBJID> ;
    sdtmig:ordinal "7" ;
    sdtmig:structure "One record per comment per subject" ;
    dc:description "Comments" ;
    dc:identifier "CO" .

<http://id.gsk.com/dataset/cdisc/sdtm-ig/v3-4/CO/CODTC> a sdtmig:Variable ;
    rdfs:label "Date/Time of Comment" ;
    sdtmig:core "Perm" ;
    sdtmig:ordinal "12" ;
    sdtmig:role "Timing" ;
    sdtmig:simpleDatatype "Char" ;
    sdtmig:valueDomain "ISO 8601 datetime or interval" ;
    dc:description "Date/time of comment on dedicated comment form. Should be null if this is a child record of another domain or if comment date was not collected." ;
    dc:identifier "CODTC" .

<http://id.gsk.com/dataset/cdisc/sdtm-ig/v3-4/CO/CODY> a sdtmig:Variable ;
    rdfs:label "Study Day of Comment" ;
    sdtmig:core "Perm" ;
    sdtmig:ordinal "13" ;
    sdtmig:role "Timing" ;
    sdtmig:simpleDatatype "Num" ;
    dc:description "Study day of the comment, in integer days. The algorithm for calculations must be relative to the sponsor-defined RFSTDTC variable in the Demographics (DM) domain." ;
    dc:identifier "CODY" .

<http://id.gsk.com/dataset/cdisc/sdtm-ig/v3-4/CO/COEVAL> a sdtmig:Variable ;
    rdfs:label "Evaluator" ;
    sdtmig:codeList <http://id.gsk.com/dataset/cdisc/ct/v48/sdtm/C78735> ;
    sdtmig:core "Perm" ;
    sdtmig:ordinal "10" ;
    sdtmig:role "Record Qualifier" ;
    sdtmig:simpleDatatype "Char" ;
    dc:description "Role of the person who provided the evaluation. Used only for results that are subjective (e.g., assigned by a person or a group). Example: \"INVESTIGATOR\"." ;
    dc:identifier "COEVAL" .

<http://id.gsk.com/dataset/cdisc/sdtm-ig/v3-4/CO/COEVALID> a sdtmig:Variable ;
    rdfs:label "Evaluator Identifier" ;
    sdtmig:codeList <http://id.gsk.com/dataset/cdisc/ct/v48/sdtm/C96777> ;
    sdtmig:core "Perm" ;
    sdtmig:ordinal "11" ;
    sdtmig:role "Record Qualifier" ;
    sdtmig:simpleDatatype "Char" ;
    dc:description "Used to distinguish multiple evaluators with the same role recorded in --EVAL. Examples: \"RADIOLOGIST\", \"RADIOLOGIST 1\", \"RADIOLOGIST 2\"." ;
    dc:identifier "COEVALID" .

<http://id.gsk.com/dataset/cdisc/sdtm-ig/v3-4/CO/COREF> a sdtmig:Variable ;
    rdfs:label "Comment Reference" ;
    sdtmig:core "Perm" ;
    sdtmig:ordinal "8" ;
    sdtmig:role "Record Qualifier" ;
    sdtmig:simpleDatatype "Char" ;
    dc:description "Sponsor-defined reference associated with the comment. May be the CRF page number (e.g., 650), or a module name (e.g., DEMOG), or a combination of information that identifies the reference (e.g. 650-VITALS-VISIT 2)." ;
    dc:identifier "COREF" .

<http://id.gsk.com/dataset/cdisc/sdtm-ig/v3-4/CO/COSEQ> a sdtmig:Variable ;
    rdfs:label "Sequence Number" ;
    sdtmig:core "Req" ;
    sdtmig:ordinal "5" ;
    sdtmig:role "Identifier" ;
    sdtmig:simpleDatatype "Num" ;
    dc:description "Sequence Number given to ensure uniqueness of subject records within a domain. May be any valid number." ;
    dc:identifier "COSEQ" .

<http://id.gsk.com/dataset/cdisc/sdtm-ig/v3-4/CO/COVAL> a sdtmig:Variable ;
    rdfs:label "Comment" ;
    sdtmig:core "Req" ;
    sdtmig:ordinal "9" ;
    sdtmig:role "Topic" ;
    sdtmig:simpleDatatype "Char" ;
    dc:description "The text of the comment. Text over 200 characters can be added to additional columns COVAL1-COVALn. See Assumption 3." ;
    dc:identifier "COVAL" .

<http://id.gsk.com/dataset/cdisc/sdtm-ig/v3-4/CO/DOMAIN> a sdtmig:Variable ;
    rdfs:label "Domain Abbreviation" ;
    sdtmig:core "Req" ;
    sdtmig:ordinal "2" ;
    sdtmig:role "Identifier" ;
    sdtmig:simpleDatatype "Char" ;
    dc:description "Two-character abbreviation for the domain." ;
    dc:identifier "DOMAIN" .

<http://id.gsk.com/dataset/cdisc/sdtm-ig/v3-4/CO/IDVAR> a sdtmig:Variable ;
    rdfs:label "Identifying Variable" ;
    sdtmig:core "Perm" ;
    sdtmig:ordinal "6" ;
    sdtmig:role "Record Qualifier" ;
    sdtmig:simpleDatatype "Char" ;
    dc:description "Identifying variable in the parent dataset that identifies the record(s) to which the comment applies. Examples AESEQ or CMGRPID. Used only when individual comments are related to domain records. Null for comments collected on separate CRFs." ;
    dc:identifier "IDVAR" .

<http://id.gsk.com/dataset/cdisc/sdtm-ig/v3-4/CO/IDVARVAL> a sdtmig:Variable ;
    rdfs:label "Identifying Variable Value" ;
    sdtmig:core "Perm" ;
    sdtmig:ordinal "7" ;
    sdtmig:role "Record Qualifier" ;
    sdtmig:simpleDatatype "Char" ;
    dc:description "Value of identifying variable of the parent record(s). Used only when individual comments are related to domain records. Null for comments collected on separate CRFs." ;
    dc:identifier "IDVARVAL" .

<http://id.gsk.com/dataset/cdisc/sdtm-ig/v3-4/CO/RDOMAIN> a sdtmig:Variable ;
    rdfs:label "Related Domain Abbreviation" ;
    sdtmig:codeList <http://id.gsk.com/dataset/cdisc/ct/v48/sdtm/C66734> ;
    sdtmig:core "Perm" ;
    sdtmig:ordinal "3" ;
    sdtmig:role "Record Qualifier" ;
    sdtmig:simpleDatatype "Char" ;
    dc:description "Two-character abbreviation for the domain of the parent record(s). Null for comments collected on a general comments or additional information CRF page." ;
    dc:identifier "RDOMAIN" .

<http://id.gsk.com/dataset/cdisc/sdtm-ig/v3-4/CO/STUDYID> a sdtmig:Variable ;
    rdfs:label "Study Identifier" ;
    sdtmig:core "Req" ;
    sdtmig:ordinal "1" ;
    sdtmig:role "Identifier" ;
    sdtmig:simpleDatatype "Char" ;
    dc:description "Unique identifier for a study." ;
    dc:identifier "STUDYID" .

<http://id.gsk.com/dataset/cdisc/sdtm-ig/v3-4/CO/USUBJID> a sdtmig:Variable ;
    rdfs:label "Unique Subject Identifier" ;
    sdtmig:core "Req" ;
    sdtmig:ordinal "4" ;
    sdtmig:role "Identifier" ;
    sdtmig:simpleDatatype "Char" ;
    dc:description "Identifier used to uniquely identify a subject across all studies for all applications or submissions involving the product." ;
    dc:identifier "USUBJID" .

<http://id.gsk.com/dataset/cdisc/sdtm-ig/v3-4/CP> a sdtmig:Domain ;
    rdfs:label "Cell Phenotype Findings" ;
    sdtmig:hasVariable <http://id.gsk.com/dataset/cdisc/sdtm-ig/v3-4/CP/CPABCLID>,
        <http://id.gsk.com/dataset/cdisc/sdtm-ig/v3-4/CP/CPANMETH>,
        <http://id.gsk.com/dataset/cdisc/sdtm-ig/v3-4/CP/CPBDAGNT>,
        <http://id.gsk.com/dataset/cdisc/sdtm-ig/v3-4/CP/CPBLFL>,
        <http://id.gsk.com/dataset/cdisc/sdtm-ig/v3-4/CP/CPCAT>,
        <http://id.gsk.com/dataset/cdisc/sdtm-ig/v3-4/CP/CPCELSTA>,
        <http://id.gsk.com/dataset/cdisc/sdtm-ig/v3-4/CP/CPCLSIG>,
        <http://id.gsk.com/dataset/cdisc/sdtm-ig/v3-4/CP/CPCNDAGT>,
        <http://id.gsk.com/dataset/cdisc/sdtm-ig/v3-4/CP/CPCOLSRT>,
        <http://id.gsk.com/dataset/cdisc/sdtm-ig/v3-4/CP/CPCSMRKS>,
        <http://id.gsk.com/dataset/cdisc/sdtm-ig/v3-4/CP/CPDRVFL>,
        <http://id.gsk.com/dataset/cdisc/sdtm-ig/v3-4/CP/CPDTC>,
        <http://id.gsk.com/dataset/cdisc/sdtm-ig/v3-4/CP/CPDY>,
        <http://id.gsk.com/dataset/cdisc/sdtm-ig/v3-4/CP/CPELTM>,
        <http://id.gsk.com/dataset/cdisc/sdtm-ig/v3-4/CP/CPGATDEF>,
        <http://id.gsk.com/dataset/cdisc/sdtm-ig/v3-4/CP/CPGATE>,
        <http://id.gsk.com/dataset/cdisc/sdtm-ig/v3-4/CP/CPGRPID>,
        <http://id.gsk.com/dataset/cdisc/sdtm-ig/v3-4/CP/CPLNKGRP>,
        <http://id.gsk.com/dataset/cdisc/sdtm-ig/v3-4/CP/CPLNKID>,
        <http://id.gsk.com/dataset/cdisc/sdtm-ig/v3-4/CP/CPLOBXFL>,
        <http://id.gsk.com/dataset/cdisc/sdtm-ig/v3-4/CP/CPLOINC>,
        <http://id.gsk.com/dataset/cdisc/sdtm-ig/v3-4/CP/CPMETHOD>,
        <http://id.gsk.com/dataset/cdisc/sdtm-ig/v3-4/CP/CPMRKSTR>,
        <http://id.gsk.com/dataset/cdisc/sdtm-ig/v3-4/CP/CPNAM>,
        <http://id.gsk.com/dataset/cdisc/sdtm-ig/v3-4/CP/CPNRIND>,
        <http://id.gsk.com/dataset/cdisc/sdtm-ig/v3-4/CP/CPORNRHI>,
        <http://id.gsk.com/dataset/cdisc/sdtm-ig/v3-4/CP/CPORNRLO>,
        <http://id.gsk.com/dataset/cdisc/sdtm-ig/v3-4/CP/CPORRES>,
        <http://id.gsk.com/dataset/cdisc/sdtm-ig/v3-4/CP/CPORRESU>,
        <http://id.gsk.com/dataset/cdisc/sdtm-ig/v3-4/CP/CPREASND>,
        <http://id.gsk.com/dataset/cdisc/sdtm-ig/v3-4/CP/CPREFID>,
        <http://id.gsk.com/dataset/cdisc/sdtm-ig/v3-4/CP/CPRESSCL>,
        <http://id.gsk.com/dataset/cdisc/sdtm-ig/v3-4/CP/CPRESTYP>,
        <http://id.gsk.com/dataset/cdisc/sdtm-ig/v3-4/CP/CPRFTDTC>,
        <http://id.gsk.com/dataset/cdisc/sdtm-ig/v3-4/CP/CPSBMRKS>,
        <http://id.gsk.com/dataset/cdisc/sdtm-ig/v3-4/CP/CPSCAT>,
        <http://id.gsk.com/dataset/cdisc/sdtm-ig/v3-4/CP/CPSEQ>,
        <http://id.gsk.com/dataset/cdisc/sdtm-ig/v3-4/CP/CPSPCCND>,
        <http://id.gsk.com/dataset/cdisc/sdtm-ig/v3-4/CP/CPSPEC>,
        <http://id.gsk.com/dataset/cdisc/sdtm-ig/v3-4/CP/CPSPID>,
        <http://id.gsk.com/dataset/cdisc/sdtm-ig/v3-4/CP/CPSPTSTD>,
        <http://id.gsk.com/dataset/cdisc/sdtm-ig/v3-4/CP/CPSTAT>,
        <http://id.gsk.com/dataset/cdisc/sdtm-ig/v3-4/CP/CPSTNRHI>,
        <http://id.gsk.com/dataset/cdisc/sdtm-ig/v3-4/CP/CPSTNRLO>,
        <http://id.gsk.com/dataset/cdisc/sdtm-ig/v3-4/CP/CPSTRESC>,
        <http://id.gsk.com/dataset/cdisc/sdtm-ig/v3-4/CP/CPSTRESN>,
        <http://id.gsk.com/dataset/cdisc/sdtm-ig/v3-4/CP/CPSTRESU>,
        <http://id.gsk.com/dataset/cdisc/sdtm-ig/v3-4/CP/CPTEST>,
        <http://id.gsk.com/dataset/cdisc/sdtm-ig/v3-4/CP/CPTESTCD>,
        <http://id.gsk.com/dataset/cdisc/sdtm-ig/v3-4/CP/CPTPT>,
        <http://id.gsk.com/dataset/cdisc/sdtm-ig/v3-4/CP/CPTPTNUM>,
        <http://id.gsk.com/dataset/cdisc/sdtm-ig/v3-4/CP/CPTPTREF>,
        <http://id.gsk.com/dataset/cdisc/sdtm-ig/v3-4/CP/CPTSTCND>,
        <http://id.gsk.com/dataset/cdisc/sdtm-ig/v3-4/CP/CPTSTPNL>,
        <http://id.gsk.com/dataset/cdisc/sdtm-ig/v3-4/CP/DOMAIN>,
        <http://id.gsk.com/dataset/cdisc/sdtm-ig/v3-4/CP/EPOCH>,
        <http://id.gsk.com/dataset/cdisc/sdtm-ig/v3-4/CP/STUDYID>,
        <http://id.gsk.com/dataset/cdisc/sdtm-ig/v3-4/CP/TAETORD>,
        <http://id.gsk.com/dataset/cdisc/sdtm-ig/v3-4/CP/USUBJID>,
        <http://id.gsk.com/dataset/cdisc/sdtm-ig/v3-4/CP/VISIT>,
        <http://id.gsk.com/dataset/cdisc/sdtm-ig/v3-4/CP/VISITDY>,
        <http://id.gsk.com/dataset/cdisc/sdtm-ig/v3-4/CP/VISITNUM> ;
    sdtmig:ordinal "8" ;
    sdtmig:structure "One record per test per specimen per timepoint per visit per subject" ;
    dc:description "Cell Phenotype Findings" ;
    dc:identifier "CP" .

<http://id.gsk.com/dataset/cdisc/sdtm-ig/v3-4/CP/CPABCLID> a sdtmig:Variable ;
    rdfs:label "Antibody Clone Identifier" ;
    sdtmig:core "Perm" ;
    sdtmig:ordinal "18" ;
    sdtmig:role "Record Qualifier" ;
    sdtmig:simpleDatatype "Char" ;
    dc:description "Identifies the antibody clone (e.g., supplier-provided catalog name) used to confer specificity for the binding agent specified in CPBDAGNT." ;
    dc:identifier "CPABCLID" .

<http://id.gsk.com/dataset/cdisc/sdtm-ig/v3-4/CP/CPANMETH> a sdtmig:Variable ;
    rdfs:label "Analysis Method" ;
    sdtmig:core "Perm" ;
    sdtmig:ordinal "46" ;
    sdtmig:role "Record Qualifier" ;
    sdtmig:simpleDatatype "Char" ;
    dc:description "Analysis method applied to obtain a summarized result. Analysis method describes the method of secondary processing applied to a complex observation result." ;
    dc:identifier "CPANMETH" .

<http://id.gsk.com/dataset/cdisc/sdtm-ig/v3-4/CP/CPBDAGNT> a sdtmig:Variable ;
    rdfs:label "Binding Agent" ;
    sdtmig:core "Perm" ;
    sdtmig:ordinal "17" ;
    sdtmig:role "Record Qualifier" ;
    sdtmig:simpleDatatype "Char" ;
    dc:description "The textual description of the agent that is binding to the entity in the CPTEST variable. The CPBDAGNT variable is used to indicate that there is a binding relationship between the entities in the CPTEST and CPBDAGNT variables, regardless of direction. \\n The binding agent may be, but is not limited to, a test article; a portion of a test article; a substance related to a test article; an endogenous molecule; an allergen; an infectious agent; or a reagent (e.g., primary antibody) that confers the binding specificity for the measurement defined in CPTEST when it is needed to uniquely identify the test." ;
    dc:identifier "CPBDAGNT" .

<http://id.gsk.com/dataset/cdisc/sdtm-ig/v3-4/CP/CPBLFL> a sdtmig:Variable ;
    rdfs:label "Baseline Flag" ;
    sdtmig:codeList <http://id.gsk.com/dataset/cdisc/ct/v48/sdtm/C66742> ;
    sdtmig:core "Perm" ;
    sdtmig:ordinal "48" ;
    sdtmig:role "Record Qualifier" ;
    sdtmig:simpleDatatype "Char" ;
    dc:description "Indicator used to identify a baseline value. The value should be \"Y\" or null." ;
    dc:identifier "CPBLFL" .

<http://id.gsk.com/dataset/cdisc/sdtm-ig/v3-4/CP/CPCAT> a sdtmig:Variable ;
    rdfs:label "Category" ;
    sdtmig:codeList <http://id.gsk.com/dataset/cdisc/ct/v48/sdtm/C181171> ;
    sdtmig:core "Perm" ;
    sdtmig:ordinal "23" ;
    sdtmig:role "Grouping Qualifier" ;
    sdtmig:simpleDatatype "Char" ;
    dc:description "Used to define a category of topic-variable values across subjects. Examples: \"IMMUNOPHENOTYPING\", \"CELL FUNCTION\", \"TARGET ENGAGEMENT\"." ;
    dc:identifier "CPCAT" .

<http://id.gsk.com/dataset/cdisc/sdtm-ig/v3-4/CP/CPCELSTA> a sdtmig:Variable ;
    rdfs:label "Cell State" ;
    sdtmig:codeList <http://id.gsk.com/dataset/cdisc/ct/v48/sdtm/C181172> ;
    sdtmig:core "Perm" ;
    sdtmig:ordinal "13" ;
    sdtmig:role "Variable Qualifier" ;
    sdtmig:simpleDatatype "Char" ;
    dc:description "A textual description of a subset of the cell population identified in CPTEST based on a particular functional and/or biological state (e.g., \"ACTIVATED\", \"PROLIFERATING\", \"SENESCENT\"). When populated, the values in CPCELSTA and CPSMRKS, in combination with the values in CPTEST and CPSBMRKS, fully describe the cell population being measured." ;
    dc:identifier "CPCELSTA" .

<http://id.gsk.com/dataset/cdisc/sdtm-ig/v3-4/CP/CPCLSIG> a sdtmig:Variable ;
    rdfs:label "Clinically Significant, Collected" ;
    sdtmig:codeList <http://id.gsk.com/dataset/cdisc/ct/v48/sdtm/C66742> ;
    sdtmig:core "Perm" ;
    sdtmig:ordinal "50" ;
    sdtmig:role "Record Qualifier" ;
    sdtmig:simpleDatatype "Char" ;
    dc:description "Used to indicate whether a collected observation is clinically significant based on judgement." ;
    dc:identifier "CPCLSIG" .

<http://id.gsk.com/dataset/cdisc/sdtm-ig/v3-4/CP/CPCNDAGT> a sdtmig:Variable ;
    rdfs:label "Test Condition Agent" ;
    sdtmig:core "Perm" ;
    sdtmig:ordinal "16" ;
    sdtmig:role "Record Qualifier" ;
    sdtmig:simpleDatatype "Char" ;
    dc:description "The textual description of the agent, if applicable, used to impose the condition identified in CPTSTCND. For example, records might be produced for the same assay run under stimulating (CPTSTCND value = \"STIMULATED\") conditions produced by different stimulating agents (e.g., phorbol myristate acetate, concanavalin A, PHA-P, TNF-alpha, Ionomycin, candida antigen)." ;
    dc:identifier "CPCNDAGT" .

<http://id.gsk.com/dataset/cdisc/sdtm-ig/v3-4/CP/CPCOLSRT> a sdtmig:Variable ;
    rdfs:label "Collected Summary Result Type" ;
    sdtmig:codeList <http://id.gsk.com/dataset/cdisc/ct/v48/sdtm/C177908> ;
    sdtmig:core "Perm" ;
    sdtmig:ordinal "30" ;
    sdtmig:role "Record Qualifier" ;
    sdtmig:simpleDatatype "Char" ;
    dc:description "Used to indicate the type of collected summary result. This includes source summary results collected on a CRF or provided by an external vendor (e.g., central lab). If the summary result is derived using individual source data records, this summary result should be represented in ADaM. If a sponsor has both a collected summary result and a derived summary result, the collected summary result should be represented in SDTM and the derived summary result should be represented in ADaM." ;
    dc:identifier "CPCOLSRT" .

<http://id.gsk.com/dataset/cdisc/sdtm-ig/v3-4/CP/CPCSMRKS> a sdtmig:Variable ;
    rdfs:label "Cell State Marker String" ;
    sdtmig:core "Perm" ;
    sdtmig:ordinal "14" ;
    sdtmig:role "Variable Qualifier" ;
    sdtmig:simpleDatatype "Char" ;
    dc:description "Identifies the marker(s) or indicator(s) used to define the cell state (i.e., the value in CPCELSTA). \\n For example, when Ki67 expression is used to determine that a cell population is in a proliferating state (i.e., CPCELSTA value=\"PROLIFERATING\"), the value \"Ki67+\" in CPCSMRKS indicates that positive expression of Ki67 was used to define the population as proliferating. Similarly, a value of \"Ki67-\" in CPCSMRKS would indicate that lack of expression of Ki67 defined the \"NON-PROLIFERATING\" cell state in CPCELSTA. The CPCSMRKS value is useful for quickly determining which marker(s) were used to classify (i.e., operationally define) a cell population based on a functional/biological state." ;
    dc:identifier "CPCSMRKS" .

<http://id.gsk.com/dataset/cdisc/sdtm-ig/v3-4/CP/CPDRVFL> a sdtmig:Variable ;
    rdfs:label "Derived Flag" ;
    sdtmig:codeList <http://id.gsk.com/dataset/cdisc/ct/v48/sdtm/C66742> ;
    sdtmig:core "Perm" ;
    sdtmig:ordinal "49" ;
    sdtmig:role "Record Qualifier" ;
    sdtmig:simpleDatatype "Char" ;
    dc:description "Used to indicate a derived record. The value should be \"Y\" or null. Records that represent the average of other records, or do not come from the CRF, or are not as originally received or collected are examples of records that might be derived for the submission datasets. If CPDRVFL = \"Y\", then CPORRES may be null, with CPSTRESC and (if numeric) CPSTRESN having the derived value." ;
    dc:identifier "CPDRVFL" .

<http://id.gsk.com/dataset/cdisc/sdtm-ig/v3-4/CP/CPDTC> a sdtmig:Variable ;
    rdfs:label "Date/Time of Collection" ;
    sdtmig:core "Exp" ;
    sdtmig:ordinal "56" ;
    sdtmig:role "Timing" ;
    sdtmig:simpleDatatype "Char" ;
    sdtmig:valueDomain "ISO 8601 datetime or interval" ;
    dc:description "Date/time of specimen collection represented in ISO 8601 character format." ;
    dc:identifier "CPDTC" .

<http://id.gsk.com/dataset/cdisc/sdtm-ig/v3-4/CP/CPDY> a sdtmig:Variable ;
    rdfs:label "Study Day of Visit/Collection/Exam" ;
    sdtmig:core "Perm" ;
    sdtmig:ordinal "57" ;
    sdtmig:role "Timing" ;
    sdtmig:simpleDatatype "Num" ;
    dc:description "Study day of specimen collection, measured in integer days. Algorithm for calculations must be relative to the sponsor-defined RFSTDTC value in Demographics." ;
    dc:identifier "CPDY" .

<http://id.gsk.com/dataset/cdisc/sdtm-ig/v3-4/CP/CPELTM> a sdtmig:Variable ;
    rdfs:label "Planned Elapsed Time from Time Point Ref" ;
    sdtmig:core "Perm" ;
    sdtmig:ordinal "60" ;
    sdtmig:role "Timing" ;
    sdtmig:simpleDatatype "Char" ;
    sdtmig:valueDomain "ISO 8601 duration" ;
    dc:description "Planned elapsed time relative to the planned fixed reference value in CPTPTREF, represented in ISO 8601 duration format. Examples: \"-PT15M\" to represent 15 minutes prior to the reference time point indicated by CPTPTREF, \"T8H\" to represent 8 hours after the reference time point represented by CPTPTREF." ;
    dc:identifier "CPELTM" .

<http://id.gsk.com/dataset/cdisc/sdtm-ig/v3-4/CP/CPGATDEF> a sdtmig:Variable ;
    rdfs:label "Gate Definition" ;
    sdtmig:core "Perm" ;
    sdtmig:ordinal "21" ;
    sdtmig:role "Record Qualifier" ;
    sdtmig:simpleDatatype "Char" ;
    dc:description "The text string identifying the set of parameters and the order in which they are applied to define the gating strategy. In practice, a series of 2-dimensional sub-gates based on different cell characteristics (i.e., markers/indicators/physical properties) are most often combined until the cell population of interest is sufficiently resolved (i.e., electronically isolated) from other cell populations contained within the specimen. \\n For complex analyses, differences in gating strategies can produce subtle differences in results obtained for a test. To ensure nuances important for accurately interpreting the data are accounted for and which arise from the use of different gating strategies, it is often necessary to qualify the test in terms of the gating strategy. For some purposes, however, and at the discretion of the sponsor, only the ultimate or penultimate gate is identified. When specifying the gating strategy in CPGATDEF, each sub-gate should be listed in the order it was applied and separated from the next sub-gate using the pipe/vertical line (\"|\") character." ;
    dc:identifier "CPGATDEF" .

<http://id.gsk.com/dataset/cdisc/sdtm-ig/v3-4/CP/CPGATE> a sdtmig:Variable ;
    rdfs:label "Gate" ;
    sdtmig:core "Perm" ;
    sdtmig:ordinal "20" ;
    sdtmig:role "Record Qualifier" ;
    sdtmig:simpleDatatype "Char" ;
    dc:description "The sponsor-defined name assigned to a gate. Gates are electronic (i.e., a device setting or software-defined) boundaries set by a user to virtually parse a specimen into discrete populations based on a set of defined characteristics (e.g., presence, absence, or intensity of expression of various markers; physical size; internal complexity or granularity). Gates are used to constrain data collection or analysis to a specific cell population or region of interest within the specimen." ;
    dc:identifier "CPGATE" .

<http://id.gsk.com/dataset/cdisc/sdtm-ig/v3-4/CP/CPGRPID> a sdtmig:Variable ;
    rdfs:label "Group ID" ;
    sdtmig:core "Perm" ;
    sdtmig:ordinal "5" ;
    sdtmig:role "Identifier" ;
    sdtmig:simpleDatatype "Char" ;
    dc:description "Used to tie together a block of related records in a single domain for a subject." ;
    dc:identifier "CPGRPID" .

<http://id.gsk.com/dataset/cdisc/sdtm-ig/v3-4/CP/CPLNKGRP> a sdtmig:Variable ;
    rdfs:label "Link Group ID" ;
    sdtmig:core "Perm" ;
    sdtmig:ordinal "9" ;
    sdtmig:role "Identifier" ;
    sdtmig:simpleDatatype "Char" ;
    dc:description "Identifier used to link related records across domains. This will usually be a many-to-one relationship." ;
    dc:identifier "CPLNKGRP" .

<http://id.gsk.com/dataset/cdisc/sdtm-ig/v3-4/CP/CPLNKID> a sdtmig:Variable ;
    rdfs:label "Link ID" ;
    sdtmig:core "Perm" ;
    sdtmig:ordinal "8" ;
    sdtmig:role "Identifier" ;
    sdtmig:simpleDatatype "Char" ;
    dc:description "Identifier used to link related records across domains. This may be a one-to-one or a one-to-many relationship." ;
    dc:identifier "CPLNKID" .

<http://id.gsk.com/dataset/cdisc/sdtm-ig/v3-4/CP/CPLOBXFL> a sdtmig:Variable ;
    rdfs:label "Last Observation Before Exposure Flag" ;
    sdtmig:codeList <http://id.gsk.com/dataset/cdisc/ct/v48/sdtm/C66742> ;
    sdtmig:core "Perm" ;
    sdtmig:ordinal "47" ;
    sdtmig:role "Record Qualifier" ;
    sdtmig:simpleDatatype "Char" ;
    dc:description "Operationally-derived indicator used to identify the last non-missing value prior to RFXSTDTC. The value should be \"Y\" or null." ;
    dc:identifier "CPLOBXFL" .

<http://id.gsk.com/dataset/cdisc/sdtm-ig/v3-4/CP/CPLOINC> a sdtmig:Variable ;
    rdfs:label "LOINC Code" ;
    sdtmig:core "Perm" ;
    sdtmig:ordinal "42" ;
    sdtmig:role "Synonym Qualifier" ;
    sdtmig:simpleDatatype "Char" ;
    sdtmig:valueDomain "LOINC" ;
    dc:description "Code for the test from the LOINC code system. The sponsor is expected to provide the dictionary name and version used to map the terms utilizing the Define-XML external codelist attributes." ;
    dc:identifier "CPLOINC" .

<http://id.gsk.com/dataset/cdisc/sdtm-ig/v3-4/CP/CPMETHOD> a sdtmig:Variable ;
    rdfs:label "Method of Test or Examination" ;
    sdtmig:codeList <http://id.gsk.com/dataset/cdisc/ct/v48/sdtm/C85492> ;
    sdtmig:core "Perm" ;
    sdtmig:ordinal "45" ;
    sdtmig:role "Record Qualifier" ;
    sdtmig:simpleDatatype "Char" ;
    dc:description "Method of the test or examination. Example: \"FLOW CYTOMETRY\"." ;
    dc:identifier "CPMETHOD" .

<http://id.gsk.com/dataset/cdisc/sdtm-ig/v3-4/CP/CPMRKSTR> a sdtmig:Variable ;
    rdfs:label "Marker String" ;
    sdtmig:core "Exp" ;
    sdtmig:ordinal "19" ;
    sdtmig:role "Record Qualifier" ;
    sdtmig:simpleDatatype "Char" ;
    dc:description "The text string identifying the full set of markers/indicators used by the laboratory to operationally define the complete test based on the combination of CPTEST, CPSBMRKS, and CPCELSTA. Because laboratories often use different markers/indicators to identify a cell population, the relationship between a named cell population in CPTEST (as combined with CPSBMRKS and CPCELSTA values) and the set of markers used to identify that population is many-to-one. To ensure nuances important for accurately interpreting the data are accounted for and which arise from the use of different sets of markers, it is necessary to operationally define the test in terms of the complete set of markers/indicators used to perform that test." ;
    dc:identifier "CPMRKSTR" .

<http://id.gsk.com/dataset/cdisc/sdtm-ig/v3-4/CP/CPNAM> a sdtmig:Variable ;
    rdfs:label "Vendor Name" ;
    sdtmig:core "Perm" ;
    sdtmig:ordinal "41" ;
    sdtmig:role "Record Qualifier" ;
    sdtmig:simpleDatatype "Char" ;
    dc:description "The name or identifier of the laboratory that performed the test." ;
    dc:identifier "CPNAM" .

<http://id.gsk.com/dataset/cdisc/sdtm-ig/v3-4/CP/CPNRIND> a sdtmig:Variable ;
    rdfs:label "Reference Range Indicator" ;
    sdtmig:codeList <http://id.gsk.com/dataset/cdisc/ct/v48/sdtm/C78736> ;
    sdtmig:core "Perm" ;
    sdtmig:ordinal "38" ;
    sdtmig:role "Variable Qualifier" ;
    sdtmig:simpleDatatype "Char" ;
    dc:description "Indicates where the value falls with respect to reference range defined by CPORNRLO and CPORNRHI, CPSTNRLO and CPSTNRHI, or by CPSTNRC. Examples: \"NORMAL\", \"ABNORMAL\", \"HIGH\", \"LOW\". Sponsors should specify in the study metadata (Comments column in the Define-XML document) whether CPNRIND refers to the original or standard reference ranges and results. CPNRIND should not be used to indicate clinical significance." ;
    dc:identifier "CPNRIND" .

<http://id.gsk.com/dataset/cdisc/sdtm-ig/v3-4/CP/CPORNRHI> a sdtmig:Variable ;
    rdfs:label "Reference Range Upper Limit in Orig Unit" ;
    sdtmig:core "Perm" ;
    sdtmig:ordinal "32" ;
    sdtmig:role "Variable Qualifier" ;
    sdtmig:simpleDatatype "Char" ;
    dc:description "Upper end of reference range for continuous measurement in original units. Should be populated only for continuous results." ;
    dc:identifier "CPORNRHI" .

<http://id.gsk.com/dataset/cdisc/sdtm-ig/v3-4/CP/CPORNRLO> a sdtmig:Variable ;
    rdfs:label "Reference Range Lower Limit in Orig Unit" ;
    sdtmig:core "Perm" ;
    sdtmig:ordinal "31" ;
    sdtmig:role "Variable Qualifier" ;
    sdtmig:simpleDatatype "Char" ;
    dc:description "Lower end of reference range for continuous measurement in original units. Should be populated only for continuous results." ;
    dc:identifier "CPORNRLO" .

<http://id.gsk.com/dataset/cdisc/sdtm-ig/v3-4/CP/CPORRES> a sdtmig:Variable ;
    rdfs:label "Result or Finding in Original Units" ;
    sdtmig:core "Exp" ;
    sdtmig:ordinal "26" ;
    sdtmig:role "Result Qualifier" ;
    sdtmig:simpleDatatype "Char" ;
    dc:description "Result of the measurement or finding as originally received or collected." ;
    dc:identifier "CPORRES" .

<http://id.gsk.com/dataset/cdisc/sdtm-ig/v3-4/CP/CPORRESU> a sdtmig:Variable ;
    rdfs:label "Original Units" ;
    sdtmig:codeList <http://id.gsk.com/dataset/cdisc/ct/v48/sdtm/C71620> ;
    sdtmig:core "Perm" ;
    sdtmig:ordinal "27" ;
    sdtmig:role "Variable Qualifier" ;
    sdtmig:simpleDatatype "Char" ;
    dc:description "Original units in which the data were collected. The unit for CPORRES. Examples: \"10^6/L\", \"%\", \"MESF\"." ;
    dc:identifier "CPORRESU" .

<http://id.gsk.com/dataset/cdisc/sdtm-ig/v3-4/CP/CPREASND> a sdtmig:Variable ;
    rdfs:label "Reason Not Done" ;
    sdtmig:core "Perm" ;
    sdtmig:ordinal "40" ;
    sdtmig:role "Record Qualifier" ;
    sdtmig:simpleDatatype "Char" ;
    dc:description "Describes why a test was not performed, e.g., \"BROKEN EQUIPMENT\", \"SUBJECT REFUSED\", \"SPECIMEN LOST\". Used in conjunction with CPSTAT when value is \"NOT DONE\"." ;
    dc:identifier "CPREASND" .

<http://id.gsk.com/dataset/cdisc/sdtm-ig/v3-4/CP/CPREFID> a sdtmig:Variable ;
    rdfs:label "Reference ID" ;
    sdtmig:core "Perm" ;
    sdtmig:ordinal "6" ;
    sdtmig:role "Identifier" ;
    sdtmig:simpleDatatype "Char" ;
    dc:description "Internal or external specimen identifier." ;
    dc:identifier "CPREFID" .

<http://id.gsk.com/dataset/cdisc/sdtm-ig/v3-4/CP/CPRESSCL> a sdtmig:Variable ;
    rdfs:label "Result Scale" ;
    sdtmig:codeList <http://id.gsk.com/dataset/cdisc/ct/v48/sdtm/C177910> ;
    sdtmig:core "Perm" ;
    sdtmig:ordinal "28" ;
    sdtmig:role "Record Qualifier" ;
    sdtmig:simpleDatatype "Char" ;
    dc:description "Classifies the scale of the original result value with respect to whether the result is quantitative, ordinal, nominal, or narrative." ;
    dc:identifier "CPRESSCL" .

<http://id.gsk.com/dataset/cdisc/sdtm-ig/v3-4/CP/CPRESTYP> a sdtmig:Variable ;
    rdfs:label "Result Type" ;
    sdtmig:codeList <http://id.gsk.com/dataset/cdisc/ct/v48/sdtm/C179588> ;
    sdtmig:core "Perm" ;
    sdtmig:ordinal "29" ;
    sdtmig:role "Record Qualifier" ;
    sdtmig:simpleDatatype "Char" ;
    dc:description "Classifies the kind of result (i.e., property type) originally reported for the test. Examples: \"NUMBER CONCENTRATION\", \"NUMBER FRACTION\", \"RATIO\"." ;
    dc:identifier "CPRESTYP" .

<http://id.gsk.com/dataset/cdisc/sdtm-ig/v3-4/CP/CPRFTDTC> a sdtmig:Variable ;
    rdfs:label "Date/Time of Reference Time Point" ;
    sdtmig:core "Perm" ;
    sdtmig:ordinal "62" ;
    sdtmig:role "Timing" ;
    sdtmig:simpleDatatype "Char" ;
    sdtmig:valueDomain "ISO 8601 datetime or interval" ;
    dc:description "Date/time for a fixed reference time point defined by CPTPTREF." ;
    dc:identifier "CPRFTDTC" .

<http://id.gsk.com/dataset/cdisc/sdtm-ig/v3-4/CP/CPSBMRKS> a sdtmig:Variable ;
    rdfs:label "Sublineage Marker String" ;
    sdtmig:core "Perm" ;
    sdtmig:ordinal "12" ;
    sdtmig:role "Variable Qualifier" ;
    sdtmig:simpleDatatype "Char" ;
    dc:description "Used to further subset the cell population identified in CPTEST based on the use of additional marker(s) that define a sublineage. The value in CPSBMRKS is used in combination with values in CPTEST and CPCELSTA to fully describe the cell population being measured. As such, it is an essential component of the full test name. \\n For example, three unnamed sublineages of monocytes have been identified as: CCR2+CD16-, CCR2-CD16+, and CCR2+CD16+. Whereas the entire monocyte cell population can be defined as CD14+ cells, the additional CCR2 and CD16 markers are used to differentiate one sublineage from another. As none of these sublineages have been given names, they are only known by the CCR2 and CD16 marker combinations. By associating the CPTEST value of \"Monocytes Sub\" with, for example, a value of \"CCR2+CD16-\" in CPSBMRKS, the full test is defined to be the CCR2+CD16- monocyte subpopulation." ;
    dc:identifier "CPSBMRKS" .

<http://id.gsk.com/dataset/cdisc/sdtm-ig/v3-4/CP/CPSCAT> a sdtmig:Variable ;
    rdfs:label "Subcategory" ;
    sdtmig:core "Perm" ;
    sdtmig:ordinal "24" ;
    sdtmig:role "Grouping Qualifier" ;
    sdtmig:simpleDatatype "Char" ;
    dc:description "A further categorization of CPCAT." ;
    dc:identifier "CPSCAT" .

<http://id.gsk.com/dataset/cdisc/sdtm-ig/v3-4/CP/CPSEQ> a sdtmig:Variable ;
    rdfs:label "Sequence Number" ;
    sdtmig:core "Req" ;
    sdtmig:ordinal "4" ;
    sdtmig:role "Identifier" ;
    sdtmig:simpleDatatype "Num" ;
    dc:description "Sequence number to ensure uniqueness of subject records within a domain. May be any valid number." ;
    dc:identifier "CPSEQ" .

<http://id.gsk.com/dataset/cdisc/sdtm-ig/v3-4/CP/CPSPCCND> a sdtmig:Variable ;
    rdfs:label "Specimen Condition" ;
    sdtmig:codeList <http://id.gsk.com/dataset/cdisc/ct/v48/sdtm/C78733> ;
    sdtmig:core "Perm" ;
    sdtmig:ordinal "44" ;
    sdtmig:role "Record Qualifier" ;
    sdtmig:simpleDatatype "Char" ;
    dc:description "The physical state or quality of a specimen for an assessment. Example: \"CLOTTED\"." ;
    dc:identifier "CPSPCCND" .

<http://id.gsk.com/dataset/cdisc/sdtm-ig/v3-4/CP/CPSPEC> a sdtmig:Variable ;
    rdfs:label "Specimen Type" ;
    sdtmig:codeList <http://id.gsk.com/dataset/cdisc/ct/v48/sdtm/C78734> ;
    sdtmig:core "Perm" ;
    sdtmig:ordinal "43" ;
    sdtmig:role "Record Qualifier" ;
    sdtmig:simpleDatatype "Char" ;
    dc:description "Defines the type of specimen used for a measurement. Examples: \"BLOOD\", \"BONE MARROW\"." ;
    dc:identifier "CPSPEC" .

<http://id.gsk.com/dataset/cdisc/sdtm-ig/v3-4/CP/CPSPID> a sdtmig:Variable ;
    rdfs:label "Sponsor-Defined Identifier" ;
    sdtmig:core "Perm" ;
    sdtmig:ordinal "7" ;
    sdtmig:role "Identifier" ;
    sdtmig:simpleDatatype "Char" ;
    dc:description "Sponsor-defined reference number. May be preprinted on the CRF as an explicit line identifier or defined in the sponsor\'s operational database. Example: Line number on the lab page." ;
    dc:identifier "CPSPID" .

<http://id.gsk.com/dataset/cdisc/sdtm-ig/v3-4/CP/CPSPTSTD> a sdtmig:Variable ;
    rdfs:label "Sponsor Test Description" ;
    sdtmig:core "Perm" ;
    sdtmig:ordinal "22" ;
    sdtmig:role "Record Qualifier" ;
    sdtmig:simpleDatatype "Char" ;
    dc:description "Sponsor\'s description of a test. The variable is intended to contain highly structured test description metadata used by a sponsor to unambiguously define (label) a test. Such values generally reside in a sponsor/laboratory test metadata repository. CPSPTSTD is not intended for unstructured (spontaneous) free text. \\n An example of appropriate usage is when it is necessary to include identifying information for a target cell population on which a test is conducted when the target population is not part of the test name, e.g., tests for quantitative expression of a particular marker on a specific cell population." ;
    dc:identifier "CPSPTSTD" .

<http://id.gsk.com/dataset/cdisc/sdtm-ig/v3-4/CP/CPSTAT> a sdtmig:Variable ;
    rdfs:label "Completion Status" ;
    sdtmig:codeList <http://id.gsk.com/dataset/cdisc/ct/v48/sdtm/C66789> ;
    sdtmig:core "Perm" ;
    sdtmig:ordinal "39" ;
    sdtmig:role "Record Qualifier" ;
    sdtmig:simpleDatatype "Char" ;
    dc:description "Used to indicate that the test was not performed or that it was attempted but did not generate a result. Should be null if a result exists in CPORRES." ;
    dc:identifier "CPSTAT" .

<http://id.gsk.com/dataset/cdisc/sdtm-ig/v3-4/CP/CPSTNRHI> a sdtmig:Variable ;
    rdfs:label "Reference Range Upper Limit-Std Units" ;
    sdtmig:core "Perm" ;
    sdtmig:ordinal "37" ;
    sdtmig:role "Variable Qualifier" ;
    sdtmig:simpleDatatype "Num" ;
    dc:description "Upper end of reference range for continuous measurements in standardized units. Should be populated only for continuous results." ;
    dc:identifier "CPSTNRHI" .

<http://id.gsk.com/dataset/cdisc/sdtm-ig/v3-4/CP/CPSTNRLO> a sdtmig:Variable ;
    rdfs:label "Reference Range Lower Limit-Std Units" ;
    sdtmig:core "Perm" ;
    sdtmig:ordinal "36" ;
    sdtmig:role "Variable Qualifier" ;
    sdtmig:simpleDatatype "Num" ;
    dc:description "Lower end of reference range for continuous measurements for CPSTRESC/CPSTRESN in standardized units. Should be populated only for continuous results." ;
    dc:identifier "CPSTNRLO" .

<http://id.gsk.com/dataset/cdisc/sdtm-ig/v3-4/CP/CPSTRESC> a sdtmig:Variable ;
    rdfs:label "Result or Finding in Standard Format" ;
    sdtmig:core "Exp" ;
    sdtmig:ordinal "33" ;
    sdtmig:role "Result Qualifier" ;
    sdtmig:simpleDatatype "Char" ;
    dc:description "Contains the result value for all findings, copied or derived from CPORRES in a standard format or in standard units. CPSTRESC should store all results or findings in character format; if results are numeric, they should also be stored in numeric format in CPSTRESN." ;
    dc:identifier "CPSTRESC" .

<http://id.gsk.com/dataset/cdisc/sdtm-ig/v3-4/CP/CPSTRESN> a sdtmig:Variable ;
    rdfs:label "Numeric Result/Finding in Standard Units" ;
    sdtmig:core "Perm" ;
    sdtmig:ordinal "34" ;
    sdtmig:role "Result Qualifier" ;
    sdtmig:simpleDatatype "Num" ;
    dc:description "Used for continuous or numeric results or findings in standard format; copied in numeric format from CPSTRESC. CPSTRESN should store all numeric test results or findings." ;
    dc:identifier "CPSTRESN" .

<http://id.gsk.com/dataset/cdisc/sdtm-ig/v3-4/CP/CPSTRESU> a sdtmig:Variable ;
    rdfs:label "Standard Units" ;
    sdtmig:codeList <http://id.gsk.com/dataset/cdisc/ct/v48/sdtm/C71620> ;
    sdtmig:core "Perm" ;
    sdtmig:ordinal "35" ;
    sdtmig:role "Variable Qualifier" ;
    sdtmig:simpleDatatype "Char" ;
    dc:description "Standardized unit used for CPSTRESC or CPSTRESN." ;
    dc:identifier "CPSTRESU" .

<http://id.gsk.com/dataset/cdisc/sdtm-ig/v3-4/CP/CPTEST> a sdtmig:Variable ;
    rdfs:label "Name of Measurement, Test or Examination" ;
    sdtmig:codeList <http://id.gsk.com/dataset/cdisc/ct/v48/sdtm/C181174> ;
    sdtmig:core "Req" ;
    sdtmig:ordinal "11" ;
    sdtmig:role "Synonym Qualifier" ;
    sdtmig:simpleDatatype "Char" ;
    dc:description "Long name for CPTESTCD. For cell phenotyping, the name (often abbreviated) of the cell population, as it is generally accepted by the scientific community, is populated (rather than a colloquial designation based on a primary marker, e.g., TLym Help rather than CD4). When the test is for a sublineage which can only be identified by specifying additional markers (i.e., has not been given a name) or which is further restricted to a subpopulation based on a particular cell state (e.g., activated, proliferating, apoptotic), the Sublineage Marker String (CPSBMRKS), Cell State (CPCELSTA), and Cell State Marker String (CPCSMRKS) variables are additionally populated and the value in CPTEST is suffixed with \"Sub\" to denote that it is a subset of the population identified in CPTEST (e.g., Monocytes Sub). \\n The value in CPTEST cannot be longer than 40 characters." ;
    dc:identifier "CPTEST" .

<http://id.gsk.com/dataset/cdisc/sdtm-ig/v3-4/CP/CPTESTCD> a sdtmig:Variable ;
    rdfs:label "Test or Examination Short Name" ;
    sdtmig:codeList <http://id.gsk.com/dataset/cdisc/ct/v48/sdtm/C181173> ;
    sdtmig:core "Req" ;
    sdtmig:ordinal "10" ;
    sdtmig:role "Topic" ;
    sdtmig:simpleDatatype "Char" ;
    dc:description "Short name of the measurement, test, or examination described in CPTEST. It can be used as a column name when converting a dataset from a vertical to a horizontal format. The value in CPTESTCD cannot be longer than 8 characters, nor can it start with a number (e.g., \"1TEST\" is not valid). CPTESTCD cannot contain characters other than letters, numbers, or underscores. Examples: \"MONO\", \"MNS\"." ;
    dc:identifier "CPTESTCD" .

<http://id.gsk.com/dataset/cdisc/sdtm-ig/v3-4/CP/CPTPT> a sdtmig:Variable ;
    rdfs:label "Planned Time Point Name" ;
    sdtmig:core "Perm" ;
    sdtmig:ordinal "58" ;
    sdtmig:role "Timing" ;
    sdtmig:simpleDatatype "Char" ;
    dc:description "Text description of time when a specimen is to be taken, as defined in the protocol. This may be represented as an elapsed time relative to a fixed reference point (i.e., to the value in CPTPTREF). Example: \"1 hour post\"." ;
    dc:identifier "CPTPT" .

<http://id.gsk.com/dataset/cdisc/sdtm-ig/v3-4/CP/CPTPTNUM> a sdtmig:Variable ;
    rdfs:label "Planned Time Point Number" ;
    sdtmig:core "Perm" ;
    sdtmig:ordinal "59" ;
    sdtmig:role "Timing" ;
    sdtmig:simpleDatatype "Num" ;
    dc:description "Numerical version of CPTPT to aid in sorting. When CPTPT is represented as an elapsed time relative to a fixed reference point (i.e., to the value in CPTPTREF), the values in CPTPTNUM should be assigned in ascending order relative to the value in CPTPTREF. For example, records for time points where CPTPT = \"5 minutes post\", 1 hour post\", and \"4 hours post\" could be represented in CPTPTNUM as \"1\", \"2\", and \"3\", which maintains the order between CPTPT and CPTPTNUM with respect to the fixed time point reference in CPTPTREF." ;
    dc:identifier "CPTPTNUM" .

<http://id.gsk.com/dataset/cdisc/sdtm-ig/v3-4/CP/CPTPTREF> a sdtmig:Variable ;
    rdfs:label "Time Point Reference" ;
    sdtmig:core "Perm" ;
    sdtmig:ordinal "61" ;
    sdtmig:role "Timing" ;
    sdtmig:simpleDatatype "Char" ;
    dc:description "Descriptive name of the fixed reference point referred to by CPTPT, CPTPTNUM, and CPELTM. Examples: \"PREVIOUS DOSE\", \"PREVIOUS MEAL\"." ;
    dc:identifier "CPTPTREF" .

<http://id.gsk.com/dataset/cdisc/sdtm-ig/v3-4/CP/CPTSTCND> a sdtmig:Variable ;
    rdfs:label "Test Condition" ;
    sdtmig:codeList <http://id.gsk.com/dataset/cdisc/ct/v48/sdtm/C181175> ;
    sdtmig:core "Perm" ;
    sdtmig:ordinal "15" ;
    sdtmig:role "Variable Qualifier" ;
    sdtmig:simpleDatatype "Char" ;
    dc:description "Identifies any planned condition imposed by the assay system on the specimen at the time the test is performed. --TSTCND is generally used to distinguish between two or more records where the same assay is performed under varying (as opposed to fixed) conditions, usually for the purpose of making a comparison. For example, when the same assay (identified in --TEST) is performed under stimulated and non-stimulated conditions, the --TSTCND variable is used distinguish between the records." ;
    dc:identifier "CPTSTCND" .

<http://id.gsk.com/dataset/cdisc/sdtm-ig/v3-4/CP/CPTSTPNL> a sdtmig:Variable ;
    rdfs:label "Test Panel" ;
    sdtmig:core "Perm" ;
    sdtmig:ordinal "25" ;
    sdtmig:role "Grouping Qualifier" ;
    sdtmig:simpleDatatype "Char" ;
    dc:description "Sponsor-defined textual description used to group tests run together as part of a test panel. Can be used with --GRPID to ensure that relationships between associated tests are accurately identified." ;
    dc:identifier "CPTSTPNL" .

<http://id.gsk.com/dataset/cdisc/sdtm-ig/v3-4/CP/DOMAIN> a sdtmig:Variable ;
    rdfs:label "Domain Abbreviation" ;
    sdtmig:core "Req" ;
    sdtmig:ordinal "2" ;
    sdtmig:role "Identifier" ;
    sdtmig:simpleDatatype "Char" ;
    dc:description "Two-character abbreviation for the domain." ;
    dc:identifier "DOMAIN" .

<http://id.gsk.com/dataset/cdisc/sdtm-ig/v3-4/CP/EPOCH> a sdtmig:Variable ;
    rdfs:label "Epoch" ;
    sdtmig:codeList <http://id.gsk.com/dataset/cdisc/ct/v48/sdtm/C99079> ;
    sdtmig:core "Perm" ;
    sdtmig:ordinal "55" ;
    sdtmig:role "Timing" ;
    sdtmig:simpleDatatype "Char" ;
    dc:description "Epoch associated with the start date/time of the observation, or the date/time of collection if start date/time is not collected." ;
    dc:identifier "EPOCH" .

<http://id.gsk.com/dataset/cdisc/sdtm-ig/v3-4/CP/STUDYID> a sdtmig:Variable ;
    rdfs:label "Study Identifier" ;
    sdtmig:core "Req" ;
    sdtmig:ordinal "1" ;
    sdtmig:role "Identifier" ;
    sdtmig:simpleDatatype "Char" ;
    dc:description "Unique identifier for a study." ;
    dc:identifier "STUDYID" .

<http://id.gsk.com/dataset/cdisc/sdtm-ig/v3-4/CP/TAETORD> a sdtmig:Variable ;
    rdfs:label "Planned Order of Element within Arm" ;
    sdtmig:core "Perm" ;
    sdtmig:ordinal "54" ;
    sdtmig:role "Timing" ;
    sdtmig:simpleDatatype "Num" ;
    dc:description "Number that gives the planned order of the element within the arm." ;
    dc:identifier "TAETORD" .

<http://id.gsk.com/dataset/cdisc/sdtm-ig/v3-4/CP/USUBJID> a sdtmig:Variable ;
    rdfs:label "Unique Subject Identifier" ;
    sdtmig:core "Req" ;
    sdtmig:ordinal "3" ;
    sdtmig:role "Identifier" ;
    sdtmig:simpleDatatype "Char" ;
    dc:description "Identifier used to uniquely identify a subject across all studies for all applications or submissions involving the product." ;
    dc:identifier "USUBJID" .

<http://id.gsk.com/dataset/cdisc/sdtm-ig/v3-4/CP/VISIT> a sdtmig:Variable ;
    rdfs:label "Visit Name" ;
    sdtmig:core "Perm" ;
    sdtmig:ordinal "52" ;
    sdtmig:role "Timing" ;
    sdtmig:simpleDatatype "Char" ;
    dc:description "Protocol-defined description of clinical encounter. May be used in addition to VISITNUM and/or VISITDY." ;
    dc:identifier "VISIT" .

<http://id.gsk.com/dataset/cdisc/sdtm-ig/v3-4/CP/VISITDY> a sdtmig:Variable ;
    rdfs:label "Planned Study Day of Visit" ;
    sdtmig:core "Perm" ;
    sdtmig:ordinal "53" ;
    sdtmig:role "Timing" ;
    sdtmig:simpleDatatype "Num" ;
    dc:description "Planned study day of the visit based upon RFSTDTC in Demographics. Should be an integer." ;
    dc:identifier "VISITDY" .

<http://id.gsk.com/dataset/cdisc/sdtm-ig/v3-4/CP/VISITNUM> a sdtmig:Variable ;
    rdfs:label "Visit Number" ;
    sdtmig:core "Perm" ;
    sdtmig:ordinal "51" ;
    sdtmig:role "Timing" ;
    sdtmig:simpleDatatype "Num" ;
    dc:description "Clinical encounter number. Numeric version of VISIT, used for sorting." ;
    dc:identifier "VISITNUM" .

<http://id.gsk.com/dataset/cdisc/sdtm-ig/v3-4/CV> a sdtmig:Domain ;
    rdfs:label "Cardiovascular System Findings" ;
    sdtmig:hasVariable <http://id.gsk.com/dataset/cdisc/sdtm-ig/v3-4/CV/CVBLFL>,
        <http://id.gsk.com/dataset/cdisc/sdtm-ig/v3-4/CV/CVCAT>,
        <http://id.gsk.com/dataset/cdisc/sdtm-ig/v3-4/CV/CVDIR>,
        <http://id.gsk.com/dataset/cdisc/sdtm-ig/v3-4/CV/CVDRVFL>,
        <http://id.gsk.com/dataset/cdisc/sdtm-ig/v3-4/CV/CVDTC>,
        <http://id.gsk.com/dataset/cdisc/sdtm-ig/v3-4/CV/CVDY>,
        <http://id.gsk.com/dataset/cdisc/sdtm-ig/v3-4/CV/CVELTM>,
        <http://id.gsk.com/dataset/cdisc/sdtm-ig/v3-4/CV/CVEVAL>,
        <http://id.gsk.com/dataset/cdisc/sdtm-ig/v3-4/CV/CVEVALID>,
        <http://id.gsk.com/dataset/cdisc/sdtm-ig/v3-4/CV/CVGRPID>,
        <http://id.gsk.com/dataset/cdisc/sdtm-ig/v3-4/CV/CVLAT>,
        <http://id.gsk.com/dataset/cdisc/sdtm-ig/v3-4/CV/CVLNKGRP>,
        <http://id.gsk.com/dataset/cdisc/sdtm-ig/v3-4/CV/CVLNKID>,
        <http://id.gsk.com/dataset/cdisc/sdtm-ig/v3-4/CV/CVLOBXFL>,
        <http://id.gsk.com/dataset/cdisc/sdtm-ig/v3-4/CV/CVLOC>,
        <http://id.gsk.com/dataset/cdisc/sdtm-ig/v3-4/CV/CVMETHOD>,
        <http://id.gsk.com/dataset/cdisc/sdtm-ig/v3-4/CV/CVORRES>,
        <http://id.gsk.com/dataset/cdisc/sdtm-ig/v3-4/CV/CVORRESU>,
        <http://id.gsk.com/dataset/cdisc/sdtm-ig/v3-4/CV/CVPOS>,
        <http://id.gsk.com/dataset/cdisc/sdtm-ig/v3-4/CV/CVREASND>,
        <http://id.gsk.com/dataset/cdisc/sdtm-ig/v3-4/CV/CVREFID>,
        <http://id.gsk.com/dataset/cdisc/sdtm-ig/v3-4/CV/CVRFTDTC>,
        <http://id.gsk.com/dataset/cdisc/sdtm-ig/v3-4/CV/CVSCAT>,
        <http://id.gsk.com/dataset/cdisc/sdtm-ig/v3-4/CV/CVSEQ>,
        <http://id.gsk.com/dataset/cdisc/sdtm-ig/v3-4/CV/CVSPID>,
        <http://id.gsk.com/dataset/cdisc/sdtm-ig/v3-4/CV/CVSTAT>,
        <http://id.gsk.com/dataset/cdisc/sdtm-ig/v3-4/CV/CVSTRESC>,
        <http://id.gsk.com/dataset/cdisc/sdtm-ig/v3-4/CV/CVSTRESN>,
        <http://id.gsk.com/dataset/cdisc/sdtm-ig/v3-4/CV/CVSTRESU>,
        <http://id.gsk.com/dataset/cdisc/sdtm-ig/v3-4/CV/CVTEST>,
        <http://id.gsk.com/dataset/cdisc/sdtm-ig/v3-4/CV/CVTESTCD>,
        <http://id.gsk.com/dataset/cdisc/sdtm-ig/v3-4/CV/CVTPT>,
        <http://id.gsk.com/dataset/cdisc/sdtm-ig/v3-4/CV/CVTPTNUM>,
        <http://id.gsk.com/dataset/cdisc/sdtm-ig/v3-4/CV/CVTPTREF>,
        <http://id.gsk.com/dataset/cdisc/sdtm-ig/v3-4/CV/DOMAIN>,
        <http://id.gsk.com/dataset/cdisc/sdtm-ig/v3-4/CV/EPOCH>,
        <http://id.gsk.com/dataset/cdisc/sdtm-ig/v3-4/CV/STUDYID>,
        <http://id.gsk.com/dataset/cdisc/sdtm-ig/v3-4/CV/TAETORD>,
        <http://id.gsk.com/dataset/cdisc/sdtm-ig/v3-4/CV/USUBJID>,
        <http://id.gsk.com/dataset/cdisc/sdtm-ig/v3-4/CV/VISIT>,
        <http://id.gsk.com/dataset/cdisc/sdtm-ig/v3-4/CV/VISITDY>,
        <http://id.gsk.com/dataset/cdisc/sdtm-ig/v3-4/CV/VISITNUM> ;
    sdtmig:ordinal "9" ;
    sdtmig:structure "One record per finding or result per time point per visit per subject" ;
    dc:description "Cardiovascular System Findings" ;
    dc:identifier "CV" .

<http://id.gsk.com/dataset/cdisc/sdtm-ig/v3-4/CV/CVBLFL> a sdtmig:Variable ;
    rdfs:label "Baseline Flag" ;
    sdtmig:codeList <http://id.gsk.com/dataset/cdisc/ct/v48/sdtm/C66742> ;
    sdtmig:core "Perm" ;
    sdtmig:ordinal "27" ;
    sdtmig:role "Record Qualifier" ;
    sdtmig:simpleDatatype "Char" ;
    dc:description "Indicator used to identify a baseline value. Should be \"Y\" or null. Note that CVBLFL is retained for backward compatibility. The authoritative baseline for statistical analysis is in an ADaM dataset." ;
    dc:identifier "CVBLFL" .

<http://id.gsk.com/dataset/cdisc/sdtm-ig/v3-4/CV/CVCAT> a sdtmig:Variable ;
    rdfs:label "Category for Cardiovascular Test" ;
    sdtmig:core "Perm" ;
    sdtmig:ordinal "12" ;
    sdtmig:role "Grouping Qualifier" ;
    sdtmig:simpleDatatype "Char" ;
    dc:description "Used to define a category of topic-variable values." ;
    dc:identifier "CVCAT" .

<http://id.gsk.com/dataset/cdisc/sdtm-ig/v3-4/CV/CVDIR> a sdtmig:Variable ;
    rdfs:label "Directionality" ;
    sdtmig:codeList <http://id.gsk.com/dataset/cdisc/ct/v48/sdtm/C99074> ;
    sdtmig:core "Perm" ;
    sdtmig:ordinal "24" ;
    sdtmig:role "Variable Qualifier" ;
    sdtmig:simpleDatatype "Char" ;
    dc:description "Qualifier for anatomical location or specimen further detailing directionality. Examples: \"ANTERIOR\", \"LOWER\", \"PROXIMAL\"." ;
    dc:identifier "CVDIR" .

<http://id.gsk.com/dataset/cdisc/sdtm-ig/v3-4/CV/CVDRVFL> a sdtmig:Variable ;
    rdfs:label "Derived Flag" ;
    sdtmig:codeList <http://id.gsk.com/dataset/cdisc/ct/v48/sdtm/C66742> ;
    sdtmig:core "Perm" ;
    sdtmig:ordinal "28" ;
    sdtmig:role "Record Qualifier" ;
    sdtmig:simpleDatatype "Char" ;
    dc:description "Used to indicate a derived record (i.e., a record that represents the average of other records, such as a computed baseline). Should be \"Y\" or null." ;
    dc:identifier "CVDRVFL" .

<http://id.gsk.com/dataset/cdisc/sdtm-ig/v3-4/CV/CVDTC> a sdtmig:Variable ;
    rdfs:label "Date/Time of Test" ;
    sdtmig:core "Exp" ;
    sdtmig:ordinal "36" ;
    sdtmig:role "Timing" ;
    sdtmig:simpleDatatype "Char" ;
    sdtmig:valueDomain "ISO 8601 datetime or interval" ;
    dc:description "Collection date and time of an observation." ;
    dc:identifier "CVDTC" .

<http://id.gsk.com/dataset/cdisc/sdtm-ig/v3-4/CV/CVDY> a sdtmig:Variable ;
    rdfs:label "Study Day of Visit/Collection/Exam" ;
    sdtmig:core "Perm" ;
    sdtmig:ordinal "37" ;
    sdtmig:role "Timing" ;
    sdtmig:simpleDatatype "Num" ;
    dc:description "Actual study day of visit/collection/exam expressed in integer days relative to the sponsor-defined RFSTDTC in Demographics." ;
    dc:identifier "CVDY" .

<http://id.gsk.com/dataset/cdisc/sdtm-ig/v3-4/CV/CVELTM> a sdtmig:Variable ;
    rdfs:label "Planned Elapsed Time from Time Point Ref" ;
    sdtmig:core "Perm" ;
    sdtmig:ordinal "40" ;
    sdtmig:role "Timing" ;
    sdtmig:simpleDatatype "Char" ;
    sdtmig:valueDomain "ISO 8601 duration" ;
    dc:description "Planned elapsed time relative to a planned fixed reference (CVTPTREF). Examples: \"PREVIOUS DOSE\", \"PREVIOUS MEAL\". This variable is useful where there are repetitive measures. Not a clock time or a date/time variable, but an interval, represented as ISO duration." ;
    dc:identifier "CVELTM" .

<http://id.gsk.com/dataset/cdisc/sdtm-ig/v3-4/CV/CVEVAL> a sdtmig:Variable ;
    rdfs:label "Evaluator" ;
    sdtmig:codeList <http://id.gsk.com/dataset/cdisc/ct/v48/sdtm/C78735> ;
    sdtmig:core "Perm" ;
    sdtmig:ordinal "29" ;
    sdtmig:role "Record Qualifier" ;
    sdtmig:simpleDatatype "Char" ;
    dc:description "Role of the person who provided the evaluation. Used only for results that are subjective (e.g., assigned by a person or a group). Examples: \"ADJUDICATION COMMITTEE\", \" INDEPENDENT ASSESSOR\", \"RADIOLOGIST\"." ;
    dc:identifier "CVEVAL" .

<http://id.gsk.com/dataset/cdisc/sdtm-ig/v3-4/CV/CVEVALID> a sdtmig:Variable ;
    rdfs:label "Evaluator Identifier" ;
    sdtmig:codeList <http://id.gsk.com/dataset/cdisc/ct/v48/sdtm/C96777> ;
    sdtmig:core "Perm" ;
    sdtmig:ordinal "30" ;
    sdtmig:role "Variable Qualifier" ;
    sdtmig:simpleDatatype "Char" ;
    dc:description "Used to distinguish multiple evaluators with the same role recorded in CVEVAL. Examples: \"RADIOLOGIST1\" or \"RADIOLOGIST2\"." ;
    dc:identifier "CVEVALID" .

<http://id.gsk.com/dataset/cdisc/sdtm-ig/v3-4/CV/CVGRPID> a sdtmig:Variable ;
    rdfs:label "Group ID" ;
    sdtmig:core "Perm" ;
    sdtmig:ordinal "5" ;
    sdtmig:role "Identifier" ;
    sdtmig:simpleDatatype "Char" ;
    dc:description "Optional group identifier, used to link together a block of related records within a subject in a domain." ;
    dc:identifier "CVGRPID" .

<http://id.gsk.com/dataset/cdisc/sdtm-ig/v3-4/CV/CVLAT> a sdtmig:Variable ;
    rdfs:label "Laterality" ;
    sdtmig:codeList <http://id.gsk.com/dataset/cdisc/ct/v48/sdtm/C99073> ;
    sdtmig:core "Perm" ;
    sdtmig:ordinal "23" ;
    sdtmig:role "Variable Qualifier" ;
    sdtmig:simpleDatatype "Char" ;
    dc:description "Qualifier for anatomical location or specimen further detailing laterality. Examples: \"RIGHT\", \"LEFT\", \"BILATERAL\", \"UNILATERAL\"." ;
    dc:identifier "CVLAT" .

<http://id.gsk.com/dataset/cdisc/sdtm-ig/v3-4/CV/CVLNKGRP> a sdtmig:Variable ;
    rdfs:label "Link Group" ;
    sdtmig:core "Perm" ;
    sdtmig:ordinal "9" ;
    sdtmig:role "Identifier" ;
    sdtmig:simpleDatatype "Char" ;
    dc:description "Identifier used to link related records across domains. This will usually be a many-to-one relationship." ;
    dc:identifier "CVLNKGRP" .

<http://id.gsk.com/dataset/cdisc/sdtm-ig/v3-4/CV/CVLNKID> a sdtmig:Variable ;
    rdfs:label "Link ID" ;
    sdtmig:core "Perm" ;
    sdtmig:ordinal "8" ;
    sdtmig:role "Identifier" ;
    sdtmig:simpleDatatype "Char" ;
    dc:description "Identifier used to link related records across domains. This may be a one-to-one or a one-to-many relationship." ;
    dc:identifier "CVLNKID" .

<http://id.gsk.com/dataset/cdisc/sdtm-ig/v3-4/CV/CVLOBXFL> a sdtmig:Variable ;
    rdfs:label "Last Observation Before Exposure Flag" ;
    sdtmig:codeList <http://id.gsk.com/dataset/cdisc/ct/v48/sdtm/C66742> ;
    sdtmig:core "Exp" ;
    sdtmig:ordinal "26" ;
    sdtmig:role "Record Qualifier" ;
    sdtmig:simpleDatatype "Char" ;
    dc:description "Operationally-derived indicator used to identify the last non-missing value prior to RFXSTDTC. The value should be \"Y\" or null." ;
    dc:identifier "CVLOBXFL" .

<http://id.gsk.com/dataset/cdisc/sdtm-ig/v3-4/CV/CVLOC> a sdtmig:Variable ;
    rdfs:label "Location Used for the Measurement" ;
    sdtmig:codeList <http://id.gsk.com/dataset/cdisc/ct/v48/sdtm/C74456> ;
    sdtmig:core "Perm" ;
    sdtmig:ordinal "22" ;
    sdtmig:role "Record Qualifier" ;
    sdtmig:simpleDatatype "Char" ;
    dc:description "Anatomical location of the subject relevant to the collection of the measurement. Examples: \"HEART\", \"LEFT VENTRICLE\"." ;
    dc:identifier "CVLOC" .

<http://id.gsk.com/dataset/cdisc/sdtm-ig/v3-4/CV/CVMETHOD> a sdtmig:Variable ;
    rdfs:label "Method of Test or Examination" ;
    sdtmig:codeList <http://id.gsk.com/dataset/cdisc/ct/v48/sdtm/C85492> ;
    sdtmig:core "Perm" ;
    sdtmig:ordinal "25" ;
    sdtmig:role "Record Qualifier" ;
    sdtmig:simpleDatatype "Char" ;
    dc:description "Method used to create the result." ;
    dc:identifier "CVMETHOD" .

<http://id.gsk.com/dataset/cdisc/sdtm-ig/v3-4/CV/CVORRES> a sdtmig:Variable ;
    rdfs:label "Result or Finding in Original Units" ;
    sdtmig:core "Exp" ;
    sdtmig:ordinal "15" ;
    sdtmig:role "Result Qualifier" ;
    sdtmig:simpleDatatype "Char" ;
    dc:description "Result of the measurement or finding as originally received or collected." ;
    dc:identifier "CVORRES" .

<http://id.gsk.com/dataset/cdisc/sdtm-ig/v3-4/CV/CVORRESU> a sdtmig:Variable ;
    rdfs:label "Original Units" ;
    sdtmig:codeList <http://id.gsk.com/dataset/cdisc/ct/v48/sdtm/C71620> ;
    sdtmig:core "Perm" ;
    sdtmig:ordinal "16" ;
    sdtmig:role "Variable Qualifier" ;
    sdtmig:simpleDatatype "Char" ;
    dc:description "Original units in which the data were collected. Unit for CVORRES." ;
    dc:identifier "CVORRESU" .

<http://id.gsk.com/dataset/cdisc/sdtm-ig/v3-4/CV/CVPOS> a sdtmig:Variable ;
    rdfs:label "Position of Subject During Observation" ;
    sdtmig:codeList <http://id.gsk.com/dataset/cdisc/ct/v48/sdtm/C71148> ;
    sdtmig:core "Perm" ;
    sdtmig:ordinal "14" ;
    sdtmig:role "Record Qualifier" ;
    sdtmig:simpleDatatype "Char" ;
    dc:description "Position of the subject during a measurement or examination. Examples: \"SUPINE\", \"STANDING\", \"SITTING\"." ;
    dc:identifier "CVPOS" .

<http://id.gsk.com/dataset/cdisc/sdtm-ig/v3-4/CV/CVREASND> a sdtmig:Variable ;
    rdfs:label "Reason Not Done" ;
    sdtmig:core "Perm" ;
    sdtmig:ordinal "21" ;
    sdtmig:role "Record Qualifier" ;
    sdtmig:simpleDatatype "Char" ;
    dc:description "Describes why a measurement or test was not performed (e.g., \"BROKEN EQUIPMENT\", \"SUBJECT REFUSED\"). Used in conjunction with CVSTAT when value is \"NOT DONE\"." ;
    dc:identifier "CVREASND" .

<http://id.gsk.com/dataset/cdisc/sdtm-ig/v3-4/CV/CVREFID> a sdtmig:Variable ;
    rdfs:label "Reference ID" ;
    sdtmig:core "Perm" ;
    sdtmig:ordinal "6" ;
    sdtmig:role "Identifier" ;
    sdtmig:simpleDatatype "Char" ;
    dc:description "Optional internal or external identifier." ;
    dc:identifier "CVREFID" .

<http://id.gsk.com/dataset/cdisc/sdtm-ig/v3-4/CV/CVRFTDTC> a sdtmig:Variable ;
    rdfs:label "Date/Time of Reference Time Point" ;
    sdtmig:core "Perm" ;
    sdtmig:ordinal "42" ;
    sdtmig:role "Timing" ;
    sdtmig:simpleDatatype "Char" ;
    sdtmig:valueDomain "ISO 8601 datetime or interval" ;
    dc:description "Date/time for a fixed reference time point defined by CVTPTREF." ;
    dc:identifier "CVRFTDTC" .

<http://id.gsk.com/dataset/cdisc/sdtm-ig/v3-4/CV/CVSCAT> a sdtmig:Variable ;
    rdfs:label "Subcategory for Cardiovascular Test" ;
    sdtmig:core "Perm" ;
    sdtmig:ordinal "13" ;
    sdtmig:role "Grouping Qualifier" ;
    sdtmig:simpleDatatype "Char" ;
    dc:description "Used to define a further categorization of CVCAT values." ;
    dc:identifier "CVSCAT" .

<http://id.gsk.com/dataset/cdisc/sdtm-ig/v3-4/CV/CVSEQ> a sdtmig:Variable ;
    rdfs:label "Sequence Number" ;
    sdtmig:core "Req" ;
    sdtmig:ordinal "4" ;
    sdtmig:role "Identifier" ;
    sdtmig:simpleDatatype "Num" ;
    dc:description "Sequence number to ensure uniqueness of records within a dataset for a subject. May be any valid number (including decimals) and does not have to start at 1." ;
    dc:identifier "CVSEQ" .

<http://id.gsk.com/dataset/cdisc/sdtm-ig/v3-4/CV/CVSPID> a sdtmig:Variable ;
    rdfs:label "Sponsor-Defined Identifier" ;
    sdtmig:core "Perm" ;
    sdtmig:ordinal "7" ;
    sdtmig:role "Identifier" ;
    sdtmig:simpleDatatype "Char" ;
    dc:description "Sponsor-defined identifier. Example: a preprinted line identifier on a CRF." ;
    dc:identifier "CVSPID" .

<http://id.gsk.com/dataset/cdisc/sdtm-ig/v3-4/CV/CVSTAT> a sdtmig:Variable ;
    rdfs:label "Completion Status" ;
    sdtmig:codeList <http://id.gsk.com/dataset/cdisc/ct/v48/sdtm/C66789> ;
    sdtmig:core "Perm" ;
    sdtmig:ordinal "20" ;
    sdtmig:role "Record Qualifier" ;
    sdtmig:simpleDatatype "Char" ;
    dc:description "Used to indicate that a question was not asked or a test was not done, or a test was attempted but did not generate a result. Should be null or have a value of \"NOT DONE\"." ;
    dc:identifier "CVSTAT" .

<http://id.gsk.com/dataset/cdisc/sdtm-ig/v3-4/CV/CVSTRESC> a sdtmig:Variable ;
    rdfs:label "Character Result/Finding in Std Format" ;
    sdtmig:core "Exp" ;
    sdtmig:ordinal "17" ;
    sdtmig:role "Result Qualifier" ;
    sdtmig:simpleDatatype "Char" ;
    dc:description "Contains the result value for all findings, copied or derived, from CVORRES in a standard format or in standard units. CVSTRESC should store all results or findings in character format; if results are numeric, they should also be stored in numeric format in CVSTRESN. For example, if various tests have results \"NONE\", \"NEG\", and \"NEGATIVE\" in CVORRES and these results effectively have the same meaning, they could be represented in standard format in CVSTRESC as \"NEGATIVE\"." ;
    dc:identifier "CVSTRESC" .

<http://id.gsk.com/dataset/cdisc/sdtm-ig/v3-4/CV/CVSTRESN> a sdtmig:Variable ;
    rdfs:label "Numeric Result/Finding in Standard Units" ;
    sdtmig:core "Perm" ;
    sdtmig:ordinal "18" ;
    sdtmig:role "Result Qualifier" ;
    sdtmig:simpleDatatype "Num" ;
    dc:description "Used for continuous or numeric results or findings in standard format; copied in numeric format from CVSTRESC. CVSTRESN should store all numeric test results or findings." ;
    dc:identifier "CVSTRESN" .

<http://id.gsk.com/dataset/cdisc/sdtm-ig/v3-4/CV/CVSTRESU> a sdtmig:Variable ;
    rdfs:label "Standard Units" ;
    sdtmig:codeList <http://id.gsk.com/dataset/cdisc/ct/v48/sdtm/C71620> ;
    sdtmig:core "Perm" ;
    sdtmig:ordinal "19" ;
    sdtmig:role "Variable Qualifier" ;
    sdtmig:simpleDatatype "Char" ;
    dc:description "Standardized units used for CVSTRESC and CVSTRESN." ;
    dc:identifier "CVSTRESU" .

<http://id.gsk.com/dataset/cdisc/sdtm-ig/v3-4/CV/CVTEST> a sdtmig:Variable ;
    rdfs:label "Name of Cardiovascular Test" ;
    sdtmig:codeList <http://id.gsk.com/dataset/cdisc/ct/v48/sdtm/C101846> ;
    sdtmig:core "Req" ;
    sdtmig:ordinal "11" ;
    sdtmig:role "Synonym Qualifier" ;
    sdtmig:simpleDatatype "Char" ;
    dc:description "Long name For CVTESTCD. The value in CVTEST cannot be longer than 40 characters." ;
    dc:identifier "CVTEST" .

<http://id.gsk.com/dataset/cdisc/sdtm-ig/v3-4/CV/CVTESTCD> a sdtmig:Variable ;
    rdfs:label "Short Name of Cardiovascular Test" ;
    sdtmig:codeList <http://id.gsk.com/dataset/cdisc/ct/v48/sdtm/C101847> ;
    sdtmig:core "Req" ;
    sdtmig:ordinal "10" ;
    sdtmig:role "Topic" ;
    sdtmig:simpleDatatype "Char" ;
    dc:description "Short name of the measurement, test, or examination described in CVTEST. It can be used as a column name when converting a dataset from a vertical to a horizontal format. The value in CVTESTCD cannot be longer than 8 characters, nor can it start with a number (e.g., \"1TEST\" would not be valid). CVTESTCD cannot contain characters other than letters, numbers, or underscores." ;
    dc:identifier "CVTESTCD" .

<http://id.gsk.com/dataset/cdisc/sdtm-ig/v3-4/CV/CVTPT> a sdtmig:Variable ;
    rdfs:label "Planned Time Point Name" ;
    sdtmig:core "Perm" ;
    sdtmig:ordinal "38" ;
    sdtmig:role "Timing" ;
    sdtmig:simpleDatatype "Char" ;
    dc:description "Text description of time when a measurement or observation should be taken, as defined in the protocol. This may be represented as an elapsed time relative to a fixed reference point, such as time of last dose. See CVTPTNUM and CVTPTREF." ;
    dc:identifier "CVTPT" .

<http://id.gsk.com/dataset/cdisc/sdtm-ig/v3-4/CV/CVTPTNUM> a sdtmig:Variable ;
    rdfs:label "Planned Time Point Number" ;
    sdtmig:core "Perm" ;
    sdtmig:ordinal "39" ;
    sdtmig:role "Timing" ;
    sdtmig:simpleDatatype "Num" ;
    dc:description "Numeric version of planned time point used in sorting." ;
    dc:identifier "CVTPTNUM" .

<http://id.gsk.com/dataset/cdisc/sdtm-ig/v3-4/CV/CVTPTREF> a sdtmig:Variable ;
    rdfs:label "Time Point Reference" ;
    sdtmig:core "Perm" ;
    sdtmig:ordinal "41" ;
    sdtmig:role "Timing" ;
    sdtmig:simpleDatatype "Char" ;
    dc:description "Description of the fixed reference point referred to by CVELTM, CVTPTNUM, and CVTPT. Examples: \"PREVIOUS DOSE\", \"PREVIOUS MEAL\"." ;
    dc:identifier "CVTPTREF" .

<http://id.gsk.com/dataset/cdisc/sdtm-ig/v3-4/CV/DOMAIN> a sdtmig:Variable ;
    rdfs:label "Domain Abbreviation" ;
    sdtmig:core "Req" ;
    sdtmig:ordinal "2" ;
    sdtmig:role "Identifier" ;
    sdtmig:simpleDatatype "Char" ;
    dc:description "Two-character abbreviation for the domain." ;
    dc:identifier "DOMAIN" .

<http://id.gsk.com/dataset/cdisc/sdtm-ig/v3-4/CV/EPOCH> a sdtmig:Variable ;
    rdfs:label "Epoch" ;
    sdtmig:codeList <http://id.gsk.com/dataset/cdisc/ct/v48/sdtm/C99079> ;
    sdtmig:core "Perm" ;
    sdtmig:ordinal "35" ;
    sdtmig:role "Timing" ;
    sdtmig:simpleDatatype "Char" ;
    dc:description "Epoch associated with the date/time at which the assessment was made." ;
    dc:identifier "EPOCH" .

<http://id.gsk.com/dataset/cdisc/sdtm-ig/v3-4/CV/STUDYID> a sdtmig:Variable ;
    rdfs:label "Study Identifier" ;
    sdtmig:core "Req" ;
    sdtmig:ordinal "1" ;
    sdtmig:role "Identifier" ;
    sdtmig:simpleDatatype "Char" ;
    dc:description "Unique identifier for a study." ;
    dc:identifier "STUDYID" .

<http://id.gsk.com/dataset/cdisc/sdtm-ig/v3-4/CV/TAETORD> a sdtmig:Variable ;
    rdfs:label "Planned Order of Element within Arm" ;
    sdtmig:core "Perm" ;
    sdtmig:ordinal "34" ;
    sdtmig:role "Timing" ;
    sdtmig:simpleDatatype "Num" ;
    dc:description "Number that gives the planned order of the element within the arm for the element in which the assessment was made." ;
    dc:identifier "TAETORD" .

<http://id.gsk.com/dataset/cdisc/sdtm-ig/v3-4/CV/USUBJID> a sdtmig:Variable ;
    rdfs:label "Unique Subject Identifier" ;
    sdtmig:core "Req" ;
    sdtmig:ordinal "3" ;
    sdtmig:role "Identifier" ;
    sdtmig:simpleDatatype "Char" ;
    dc:description "Identifier used to uniquely identify a subject across all studies for all applications or submissions involving the product." ;
    dc:identifier "USUBJID" .

<http://id.gsk.com/dataset/cdisc/sdtm-ig/v3-4/CV/VISIT> a sdtmig:Variable ;
    rdfs:label "Visit Name" ;
    sdtmig:core "Perm" ;
    sdtmig:ordinal "32" ;
    sdtmig:role "Timing" ;
    sdtmig:simpleDatatype "Char" ;
    dc:description "Protocol-defined description of clinical encounter. May be used in addition to VISITNUM and/or VISITDY." ;
    dc:identifier "VISIT" .

<http://id.gsk.com/dataset/cdisc/sdtm-ig/v3-4/CV/VISITDY> a sdtmig:Variable ;
    rdfs:label "Planned Study Day of Visit" ;
    sdtmig:core "Perm" ;
    sdtmig:ordinal "33" ;
    sdtmig:role "Timing" ;
    sdtmig:simpleDatatype "Num" ;
    dc:description "Planned study day of VISIT. Should be an integer." ;
    dc:identifier "VISITDY" .

<http://id.gsk.com/dataset/cdisc/sdtm-ig/v3-4/CV/VISITNUM> a sdtmig:Variable ;
    rdfs:label "Visit Number" ;
    sdtmig:core "Exp" ;
    sdtmig:ordinal "31" ;
    sdtmig:role "Timing" ;
    sdtmig:simpleDatatype "Num" ;
    dc:description "Clinical encounter number. Numeric version of VISIT, used for sorting." ;
    dc:identifier "VISITNUM" .

<http://id.gsk.com/dataset/cdisc/sdtm-ig/v3-4/DA> a sdtmig:Domain ;
    rdfs:label "Product Accountability" ;
    sdtmig:hasVariable <http://id.gsk.com/dataset/cdisc/sdtm-ig/v3-4/DA/DACAT>,
        <http://id.gsk.com/dataset/cdisc/sdtm-ig/v3-4/DA/DADTC>,
        <http://id.gsk.com/dataset/cdisc/sdtm-ig/v3-4/DA/DADY>,
        <http://id.gsk.com/dataset/cdisc/sdtm-ig/v3-4/DA/DAGRPID>,
        <http://id.gsk.com/dataset/cdisc/sdtm-ig/v3-4/DA/DALNKGRP>,
        <http://id.gsk.com/dataset/cdisc/sdtm-ig/v3-4/DA/DALNKID>,
        <http://id.gsk.com/dataset/cdisc/sdtm-ig/v3-4/DA/DAORRES>,
        <http://id.gsk.com/dataset/cdisc/sdtm-ig/v3-4/DA/DAORRESU>,
        <http://id.gsk.com/dataset/cdisc/sdtm-ig/v3-4/DA/DAREASND>,
        <http://id.gsk.com/dataset/cdisc/sdtm-ig/v3-4/DA/DAREFID>,
        <http://id.gsk.com/dataset/cdisc/sdtm-ig/v3-4/DA/DASCAT>,
        <http://id.gsk.com/dataset/cdisc/sdtm-ig/v3-4/DA/DASEQ>,
        <http://id.gsk.com/dataset/cdisc/sdtm-ig/v3-4/DA/DASPID>,
        <http://id.gsk.com/dataset/cdisc/sdtm-ig/v3-4/DA/DASTAT>,
        <http://id.gsk.com/dataset/cdisc/sdtm-ig/v3-4/DA/DASTRESC>,
        <http://id.gsk.com/dataset/cdisc/sdtm-ig/v3-4/DA/DASTRESN>,
        <http://id.gsk.com/dataset/cdisc/sdtm-ig/v3-4/DA/DASTRESU>,
        <http://id.gsk.com/dataset/cdisc/sdtm-ig/v3-4/DA/DATEST>,
        <http://id.gsk.com/dataset/cdisc/sdtm-ig/v3-4/DA/DATESTCD>,
        <http://id.gsk.com/dataset/cdisc/sdtm-ig/v3-4/DA/DOMAIN>,
        <http://id.gsk.com/dataset/cdisc/sdtm-ig/v3-4/DA/EPOCH>,
        <http://id.gsk.com/dataset/cdisc/sdtm-ig/v3-4/DA/STUDYID>,
        <http://id.gsk.com/dataset/cdisc/sdtm-ig/v3-4/DA/TAETORD>,
        <http://id.gsk.com/dataset/cdisc/sdtm-ig/v3-4/DA/USUBJID>,
        <http://id.gsk.com/dataset/cdisc/sdtm-ig/v3-4/DA/VISIT>,
        <http://id.gsk.com/dataset/cdisc/sdtm-ig/v3-4/DA/VISITDY>,
        <http://id.gsk.com/dataset/cdisc/sdtm-ig/v3-4/DA/VISITNUM> ;
    sdtmig:ordinal "10" ;
